filename,subjectGroup,browser,version,screenWidth,screenHeight,OS,OS_lang,GMT_timestamp,local_timestamp,trial_file_version,mindsCode,batchID,link,duration_s,duration,duration_m,rowNo,type,stim1,stim2,stim3,stim4,stimFormat,ITI,ISI,presTime,stimPos,responseType,responseOptions,head,trialText,trialTextPos,subjectGroup,random,tag,stimPos_actual,ITI_ms,ITI_f,ITI_fDuration,presTime_ms,presTime_f,presTime_fDuration,timestamp,response,RT,responseCode
522931_231101_122259_M022949.csv,1,Chrome,118.0.0.0,1536,864,Windows,en-GB,2023-11-01_12:17:30,2023-11-01_12:17:30,2023-10-31_10:09:10,M022949,TYKHTP-01,https://www.testable.org/experiment/6826/522931/start?participant=M022949&batch_id=TYKHTP-01,339.16,330130,5.5021,12,test,FKL,A start,FKL,ANL end,.png,800,;0,6000;,0 -300; 0 0; 0 -300; 0 0,comment,,,What do you think is the single best explanation for the person's chosen path?,below,1,1,t110101,0 -300;0 0;0 -300;0 0,800,48,16.67,6000,360,16.67,131349,They wanted to see if anything else was available.,27083,
522931_231101_122259_M022949.csv,1,Chrome,118.0.0.0,1536,864,Windows,en-GB,2023-11-01_12:17:30,2023-11-01_12:17:30,2023-10-31_10:09:10,M022949,TYKHTP-01,https://www.testable.org/experiment/6826/522931/start?participant=M022949&batch_id=TYKHTP-01,339.16,330130,5.5021,11,test,FKS,B start,FKS,BNS end,.png,800,;0,6000;,0 -300; 0 0; 0 -300; 0 0,comment,,,What do you think is the single best explanation for the person's chosen path?,below,1,1,t111000,0 -300;0 0;0 -300;0 0,800,48,16.67,6000,360,16.67,166997,They couldn't see the hot dogs so went for the convenient option.,28851,
522931_231101_122259_M022949.csv,1,Chrome,118.0.0.0,1536,864,Windows,en-GB,2023-11-01_12:17:30,2023-11-01_12:17:30,2023-10-31_10:09:10,M022949,TYKHTP-01,https://www.testable.org/experiment/6826/522931/start?participant=M022949&batch_id=TYKHTP-01,339.16,330130,5.5021,13,test,ADS,B start,ADS,BNL end,.png,800,;0,6000;,0 -300; 0 0; 0 -300; 0 0,comment,,,What do you think is the single best explanation for the person's chosen path?,below,1,1,t001001,0 -300;0 0;0 -300;0 0,800,48,16.67,6000,360,16.67,191716,They wanted a long walk to see what else was available,17916,
522931_231101_122259_M022949.csv,1,Chrome,118.0.0.0,1536,864,Windows,en-GB,2023-11-01_12:17:30,2023-11-01_12:17:30,2023-10-31_10:09:10,M022949,TYKHTP-01,https://www.testable.org/experiment/6826/522931/start?participant=M022949&batch_id=TYKHTP-01,339.16,330130,5.5021,14,test,ADL,A start,ADL,ANS end,.png,800,;0,6000;,0 -300; 0 0; 0 -300; 0 0,comment,,,What do you think is the single best explanation for the person's chosen path?,below,1,1,t000100,0 -300;0 0;0 -300;0 0,800,48,16.67,6000,360,16.67,219097,They didn't like hot dogs so went to find something else.,20580,
522931_231101_122259_M022949.csv,1,Chrome,118.0.0.0,1536,864,Windows,en-GB,2023-11-01_12:17:30,2023-11-01_12:17:30,2023-10-31_10:09:10,M022949,TYKHTP-01,https://www.testable.org/experiment/6826/522931/start?participant=M022949&batch_id=TYKHTP-01,339.16,330130,5.5021,10,test,FDL,A start,FDL,APS end,.png,800,;0,6000;,0 -300; 0 0; 0 -300; 0 0,comment,,,What do you think is the single best explanation for the person's chosen path?,below,1,1,t100110,0 -300;0 0;0 -300;0 0,800,48,16.67,6000,360,16.67,237900,They love hot dogs so went straight there,12014,
522931_231101_122259_M022949.csv,1,Chrome,118.0.0.0,1536,864,Windows,en-GB,2023-11-01_12:17:30,2023-11-01_12:17:30,2023-10-31_10:09:10,M022949,TYKHTP-01,https://www.testable.org/experiment/6826/522931/start?participant=M022949&batch_id=TYKHTP-01,339.16,330130,5.5021,16,test,AKL,B start,AKL,BPL end,.png,800,;0,6000;,0 -300; 0 0; 0 -300; 0 0,comment,,,What do you think is the single best explanation for the person's chosen path?,below,1,1,t010011,0 -300;0 0;0 -300;0 0,800,48,16.67,6000,360,16.67,261888,They wanted to go for a long walk,17201,
522931_231101_122259_M022949.csv,1,Chrome,118.0.0.0,1536,864,Windows,en-GB,2023-11-01_12:17:30,2023-11-01_12:17:30,2023-10-31_10:09:10,M022949,TYKHTP-01,https://www.testable.org/experiment/6826/522931/start?participant=M022949&batch_id=TYKHTP-01,339.16,330130,5.5021,15,test,AKS,B start,AKS,BPS end,.png,800,;0,6000;,0 -300; 0 0; 0 -300; 0 0,comment,,,What do you think is the single best explanation for the person's chosen path?,below,1,1,t011010,0 -300;0 0;0 -300;0 0,800,48,16.67,6000,360,16.67,289385,They wanted a longer walk and knew there were hot dogs available,20696,
522931_231101_122259_M022949.csv,1,Chrome,118.0.0.0,1536,864,Windows,en-GB,2023-11-01_12:17:30,2023-11-01_12:17:30,2023-10-31_10:09:10,M022949,TYKHTP-01,https://www.testable.org/experiment/6826/522931/start?participant=M022949&batch_id=TYKHTP-01,339.16,330130,5.5021,9,test,FDS,A start,FDS,APL end,.png,800,;0,6000;,0 -300; 0 0; 0 -300; 0 0,comment,,,What do you think is the single best explanation for the person's chosen path?,below,1,1,t101111,0 -300;0 0;0 -300;0 0,800,48,16.67,6000,360,16.67,312951,They wanted to see what else was available,16779,
522931_231101_122259_M022949.csv,1,Chrome,118.0.0.0,1536,864,Windows,en-GB,2023-11-01_12:17:30,2023-11-01_12:17:30,2023-10-31_10:09:10,M022949,TYKHTP-01,https://www.testable.org/experiment/6826/522931/start?participant=M022949&batch_id=TYKHTP-01,339.16,330130,5.5021,74,form,,,,,,,,,,dropdown,Male;Female;Prefer not say,To which gender do you most identify?,,,1,,,,800,,,,,,330130,Female,9030,2
522931_231101_122259_M022949.csv,1,Chrome,118.0.0.0,1536,864,Windows,en-GB,2023-11-01_12:17:30,2023-11-01_12:17:30,2023-10-31_10:09:10,M022949,TYKHTP-01,https://www.testable.org/experiment/6826/522931/start?participant=M022949&batch_id=TYKHTP-01,339.16,330130,5.5021,75,form,,,,,,,,,,box,,Please state your age in the text box below.,,,1,,,,800,,,,,,330130,38,9030,NA
522931_231101_122259_M022949.csv,1,Chrome,118.0.0.0,1536,864,Windows,en-GB,2023-11-01_12:17:30,2023-11-01_12:17:30,2023-10-31_10:09:10,M022949,TYKHTP-01,https://www.testable.org/experiment/6826/522931/start?participant=M022949&batch_id=TYKHTP-01,339.16,330130,5.5021,76,form,,,,,,,,,,comment,,Do you have any comments or feedback regarding the experiment?,,,1,,,,800,,,,,,330130,None,9030,NA
522931_231101_122322_M701443.csv,6,Chrome,118.0.0.0,1280,720,Windows,en-GB,2023-11-01_12:17:27,2023-11-01_12:17:27,2023-10-31_10:09:10,M701443,TYKHTP-01,https://www.testable.org/experiment/6826/522931/start?participant=M701443&batch_id=TYKHTP-01,368.318,356519,5.9419,56,test,AKL,A start,AKL,APS end,.png,800,;0,6000;,0 -300; 0 0; 0 -300; 0 0,comment,,,What do you think is the single best explanation for the person's chosen path?,below,6,6,t010110,0 -300;0 0;0 -300;0 0,800,48,16.66,5999,360,16.66,122713,Charlie can't be bothered walking to the pizza stand and goes to the closest stand which is the hot dog stand.,50094,
522931_231101_122322_M701443.csv,6,Chrome,118.0.0.0,1280,720,Windows,en-GB,2023-11-01_12:17:27,2023-11-01_12:17:27,2023-10-31_10:09:10,M701443,TYKHTP-01,https://www.testable.org/experiment/6826/522931/start?participant=M701443&batch_id=TYKHTP-01,368.318,356519,5.9419,53,test,ADS,A start,ADS,ANS end,.png,800,;0,6000;,0 -300; 0 0; 0 -300; 0 0,comment,,,What do you think is the single best explanation for the person's chosen path?,below,6,6,t001100,0 -300;0 0;0 -300;0 0,800,48,16.66,5999,360,16.66,143203,He doesn't know that the pizza stand is round the corner.,13693,
522931_231101_122322_M701443.csv,6,Chrome,118.0.0.0,1280,720,Windows,en-GB,2023-11-01_12:17:27,2023-11-01_12:17:27,2023-10-31_10:09:10,M701443,TYKHTP-01,https://www.testable.org/experiment/6826/522931/start?participant=M701443&batch_id=TYKHTP-01,368.318,356519,5.9419,50,test,FDL,B start,FDL,BNL end,.png,800,;0,6000;,0 -300; 0 0; 0 -300; 0 0,comment,,,What do you think is the single best explanation for the person's chosen path?,below,6,6,t100001,0 -300;0 0;0 -300;0 0,800,48,16.66,5999,360,16.66,187424,Harper walks past the hot dog stand as he is lazy and he didn't notice it.,37420,
522931_231101_122322_M701443.csv,6,Chrome,118.0.0.0,1280,720,Windows,en-GB,2023-11-01_12:17:27,2023-11-01_12:17:27,2023-10-31_10:09:10,M701443,TYKHTP-01,https://www.testable.org/experiment/6826/522931/start?participant=M701443&batch_id=TYKHTP-01,368.318,356519,5.9419,51,test,FKS,B start,FKS,BPL end,.png,800,;0,6000;,0 -300; 0 0; 0 -300; 0 0,comment,,,What do you think is the single best explanation for the person's chosen path?,below,6,6,t111011,0 -300;0 0;0 -300;0 0,800,48,16.66,5999,360,16.66,209394,Taylor wants a hotdog.,15185,
522931_231101_122322_M701443.csv,6,Chrome,118.0.0.0,1280,720,Windows,en-GB,2023-11-01_12:17:27,2023-11-01_12:17:27,2023-10-31_10:09:10,M701443,TYKHTP-01,https://www.testable.org/experiment/6826/522931/start?participant=M701443&batch_id=TYKHTP-01,368.318,356519,5.9419,55,test,AKS,A start,AKS,ANL end,.png,800,;0,6000;,0 -300; 0 0; 0 -300; 0 0,comment,,,What do you think is the single best explanation for the person's chosen path?,below,6,6,t011101,0 -300;0 0;0 -300;0 0,803,48,16.74,5995,360,16.65,236998,Drew knows where the pizza stand is but takes the longer route for some extra exercise before his pizza.,20811,
522931_231101_122322_M701443.csv,6,Chrome,118.0.0.0,1280,720,Windows,en-GB,2023-11-01_12:17:27,2023-11-01_12:17:27,2023-10-31_10:09:10,M701443,TYKHTP-01,https://www.testable.org/experiment/6826/522931/start?participant=M701443&batch_id=TYKHTP-01,368.318,356519,5.9419,49,test,FDS,B start,FDS,BPS end,.png,800,;0,6000;,0 -300; 0 0; 0 -300; 0 0,comment,,,What do you think is the single best explanation for the person's chosen path?,below,6,6,t101010,0 -300;0 0;0 -300;0 0,800,48,16.66,5999,360,16.66,268572,His favourite food is hot dogs and went straight there.,24775,
522931_231101_122322_M701443.csv,6,Chrome,118.0.0.0,1280,720,Windows,en-GB,2023-11-01_12:17:27,2023-11-01_12:17:27,2023-10-31_10:09:10,M701443,TYKHTP-01,https://www.testable.org/experiment/6826/522931/start?participant=M701443&batch_id=TYKHTP-01,368.318,356519,5.9419,54,test,ADL,A start,ADL,APL end,.png,800,;0,6000;,0 -300; 0 0; 0 -300; 0 0,comment,,,What do you think is the single best explanation for the person's chosen path?,below,6,6,t000111,0 -300;0 0;0 -300;0 0,800,48,16.66,5998,360,16.66,293938,Adrian gets lost and ends up taking the longer route to the hot dog stand.,18565,
522931_231101_122322_M701443.csv,6,Chrome,118.0.0.0,1280,720,Windows,en-GB,2023-11-01_12:17:27,2023-11-01_12:17:27,2023-10-31_10:09:10,M701443,TYKHTP-01,https://www.testable.org/experiment/6826/522931/start?participant=M701443&batch_id=TYKHTP-01,368.318,356519,5.9419,52,test,FKL,B start,FKL,BNS end,.png,800,;0,6000;,0 -300; 0 0; 0 -300; 0 0,comment,,,What do you think is the single best explanation for the person's chosen path?,below,6,6,t110000,0 -300;0 0;0 -300;0 0,800,48,16.66,5999,360,16.66,331976,Parker is too lazy to walk to the hotdog stand.,31242,
522931_231101_122322_M701443.csv,6,Chrome,118.0.0.0,1280,720,Windows,en-GB,2023-11-01_12:17:27,2023-11-01_12:17:27,2023-10-31_10:09:10,M701443,TYKHTP-01,https://www.testable.org/experiment/6826/522931/start?participant=M701443&batch_id=TYKHTP-01,368.318,356519,5.9419,74,form,,,,,,,,,,dropdown,Male;Female;Prefer not say,To which gender do you most identify?,,,6,,,,800,,,,,,356519,Female,11799,2
522931_231101_122322_M701443.csv,6,Chrome,118.0.0.0,1280,720,Windows,en-GB,2023-11-01_12:17:27,2023-11-01_12:17:27,2023-10-31_10:09:10,M701443,TYKHTP-01,https://www.testable.org/experiment/6826/522931/start?participant=M701443&batch_id=TYKHTP-01,368.318,356519,5.9419,75,form,,,,,,,,,,box,,Please state your age in the text box below.,,,6,,,,800,,,,,,356519,27,11799,NA
522931_231101_122322_M701443.csv,6,Chrome,118.0.0.0,1280,720,Windows,en-GB,2023-11-01_12:17:27,2023-11-01_12:17:27,2023-10-31_10:09:10,M701443,TYKHTP-01,https://www.testable.org/experiment/6826/522931/start?participant=M701443&batch_id=TYKHTP-01,368.318,356519,5.9419,76,form,,,,,,,,,,comment,,Do you have any comments or feedback regarding the experiment?,,,6,,,,800,,,,,,356519,NA,11799,NA
522931_231101_122334_M440728.csv,7,Chrome,118.0.0.0,1920,1080,Windows,en-GB,2023-11-01_12:17:38,2023-11-01_12:17:38,2023-10-31_10:09:10,M440728,TYKHTP-01,https://www.testable.org/experiment/6826/522931/start?participant=M440728&batch_id=TYKHTP-01,361.39,356705,5.945,61,test,ADS,B start,ADS,BPL end,.png,800,;0,6000;,0 -300; 0 0; 0 -300; 0 0,comment,,,What do you think is the single best explanation for the person's chosen path?,below,7,7,t001011,0 -300;0 0;0 -300;0 0,800,132,6.06,6003,990,6.06,135615,He wanted to explore the area before eating.,24824,
522931_231101_122334_M440728.csv,7,Chrome,118.0.0.0,1920,1080,Windows,en-GB,2023-11-01_12:17:38,2023-11-01_12:17:38,2023-10-31_10:09:10,M440728,TYKHTP-01,https://www.testable.org/experiment/6826/522931/start?participant=M440728&batch_id=TYKHTP-01,361.39,356705,5.945,58,test,FDL,B start,FDL,BNS end,.png,800,;0,6000;,0 -300; 0 0; 0 -300; 0 0,comment,,,What do you think is the single best explanation for the person's chosen path?,below,7,7,t100000,0 -300;0 0;0 -300;0 0,800,132,6.06,6003,990,6.06,164080,They were too lazy to explore so just got pizza.,21665,
522931_231101_122334_M440728.csv,7,Chrome,118.0.0.0,1920,1080,Windows,en-GB,2023-11-01_12:17:38,2023-11-01_12:17:38,2023-10-31_10:09:10,M440728,TYKHTP-01,https://www.testable.org/experiment/6826/522931/start?participant=M440728&batch_id=TYKHTP-01,361.39,356705,5.945,64,test,AKL,A start,AKL,ANL end,.png,800,;0,6000;,0 -300; 0 0; 0 -300; 0 0,comment,,,What do you think is the single best explanation for the person's chosen path?,below,7,7,t010101,0 -300;0 0;0 -300;0 0,800,132,6.06,6003,990,6.06,202700,He felt like going for a walk and wanted pizza.,31815,
522931_231101_122334_M440728.csv,7,Chrome,118.0.0.0,1920,1080,Windows,en-GB,2023-11-01_12:17:38,2023-11-01_12:17:38,2023-10-31_10:09:10,M440728,TYKHTP-01,https://www.testable.org/experiment/6826/522931/start?participant=M440728&batch_id=TYKHTP-01,361.39,356705,5.945,59,test,FKS,B start,FKS,BPS end,.png,800,;0,6000;,0 -300; 0 0; 0 -300; 0 0,comment,,,What do you think is the single best explanation for the person's chosen path?,below,7,7,t111010,0 -300;0 0;0 -300;0 0,800,132,6.06,6003,990,6.06,226915,Hot dogs are their favourite food.,17414,
522931_231101_122334_M440728.csv,7,Chrome,118.0.0.0,1920,1080,Windows,en-GB,2023-11-01_12:17:38,2023-11-01_12:17:38,2023-10-31_10:09:10,M440728,TYKHTP-01,https://www.testable.org/experiment/6826/522931/start?participant=M440728&batch_id=TYKHTP-01,361.39,356705,5.945,63,test,AKS,A start,AKS,ANS end,.png,800,;0,6000;,0 -300; 0 0; 0 -300; 0 0,comment,,,What do you think is the single best explanation for the person's chosen path?,below,7,7,t011100,0 -300;0 0;0 -300;0 0,800,132,6.06,6002,990,6.06,251291,His favourite food might be pizza.,17577,
522931_231101_122334_M440728.csv,7,Chrome,118.0.0.0,1920,1080,Windows,en-GB,2023-11-01_12:17:38,2023-11-01_12:17:38,2023-10-31_10:09:10,M440728,TYKHTP-01,https://www.testable.org/experiment/6826/522931/start?participant=M440728&batch_id=TYKHTP-01,361.39,356705,5.945,62,test,ADL,A start,ADL,APS end,.png,800,;0,6000;,0 -300; 0 0; 0 -300; 0 0,comment,,,What do you think is the single best explanation for the person's chosen path?,below,7,7,t000110,0 -300;0 0;0 -300;0 0,800,132,6.06,6004,990,6.06,282541,He may not have known pizza was just as close and was too lazy to find out.,24445,
522931_231101_122334_M440728.csv,7,Chrome,118.0.0.0,1920,1080,Windows,en-GB,2023-11-01_12:17:38,2023-11-01_12:17:38,2023-10-31_10:09:10,M440728,TYKHTP-01,https://www.testable.org/experiment/6826/522931/start?participant=M440728&batch_id=TYKHTP-01,361.39,356705,5.945,57,test,FDS,B start,FDS,BNL end,.png,800,;0,6000;,0 -300; 0 0; 0 -300; 0 0,comment,,,What do you think is the single best explanation for the person's chosen path?,below,7,7,t101001,0 -300;0 0;0 -300;0 0,801,132,6.06,6003,990,6.06,306138,They wanted to go for a long walk before eating.,16797,
522931_231101_122334_M440728.csv,7,Chrome,118.0.0.0,1920,1080,Windows,en-GB,2023-11-01_12:17:38,2023-11-01_12:17:38,2023-10-31_10:09:10,M440728,TYKHTP-01,https://www.testable.org/experiment/6826/522931/start?participant=M440728&batch_id=TYKHTP-01,361.39,356705,5.945,60,test,FKL,A start,FKL,APL end,.png,800,;0,6000;,0 -300; 0 0; 0 -300; 0 0,comment,,,What do you think is the single best explanation for the person's chosen path?,below,7,7,t110111,0 -300;0 0;0 -300;0 0,800,132,6.06,5998,989,6.06,343499,Wanted to check what the pizza van was offering before getting hot dogs as usual.,30565,
522931_231101_122334_M440728.csv,7,Chrome,118.0.0.0,1920,1080,Windows,en-GB,2023-11-01_12:17:38,2023-11-01_12:17:38,2023-10-31_10:09:10,M440728,TYKHTP-01,https://www.testable.org/experiment/6826/522931/start?participant=M440728&batch_id=TYKHTP-01,361.39,356705,5.945,74,form,,,,,,,,,,dropdown,Male;Female;Prefer not say,To which gender do you most identify?,,,7,,,,800,,,,,,356705,Male,4685,1
522931_231101_122334_M440728.csv,7,Chrome,118.0.0.0,1920,1080,Windows,en-GB,2023-11-01_12:17:38,2023-11-01_12:17:38,2023-10-31_10:09:10,M440728,TYKHTP-01,https://www.testable.org/experiment/6826/522931/start?participant=M440728&batch_id=TYKHTP-01,361.39,356705,5.945,75,form,,,,,,,,,,box,,Please state your age in the text box below.,,,7,,,,800,,,,,,356705,23,4685,NA
522931_231101_122334_M440728.csv,7,Chrome,118.0.0.0,1920,1080,Windows,en-GB,2023-11-01_12:17:38,2023-11-01_12:17:38,2023-10-31_10:09:10,M440728,TYKHTP-01,https://www.testable.org/experiment/6826/522931/start?participant=M440728&batch_id=TYKHTP-01,361.39,356705,5.945,76,form,,,,,,,,,,comment,,Do you have any comments or feedback regarding the experiment?,,,7,,,,800,,,,,,356705,NA,4685,NA
522931_231101_122442_M481805.csv,5,Chrome,118.0.0.0,1920,1080,Linux,en-GB,2023-11-01_12:17:27,2023-11-01_12:17:27,2023-10-31_10:09:10,M481805,TYKHTP-01,https://www.testable.org/experiment/6826/522931/start?participant=M481805&batch_id=TYKHTP-01,441.792,435901,7.265,48,test,AKL,A start,AKL,APL end,.png,800,;0,6000;,0 -300; 0 0; 0 -300; 0 0,comment,,,What do you think is the single best explanation for the person's chosen path?,below,5,5,t010111,0 -300;0 0;0 -300;0 0,800,48,16.66,5999,360,16.66,148849,Charlie wanted to get some exercise in because he know he is generally lazy,76224,
522931_231101_122442_M481805.csv,5,Chrome,118.0.0.0,1920,1080,Linux,en-GB,2023-11-01_12:17:27,2023-11-01_12:17:27,2023-10-31_10:09:10,M481805,TYKHTP-01,https://www.testable.org/experiment/6826/522931/start?participant=M481805&batch_id=TYKHTP-01,441.792,435901,7.265,45,test,ADS,A start,ADS,ANL end,.png,800,;0,6000;,0 -300; 0 0; 0 -300; 0 0,comment,,,What do you think is the single best explanation for the person's chosen path?,below,5,5,t001101,0 -300;0 0;0 -300;0 0,800,48,16.66,5999,360,16.66,179302,Brooklyn wanted pizza and kept walking until he found it.,23659,
522931_231101_122442_M481805.csv,5,Chrome,118.0.0.0,1920,1080,Linux,en-GB,2023-11-01_12:17:27,2023-11-01_12:17:27,2023-10-31_10:09:10,M481805,TYKHTP-01,https://www.testable.org/experiment/6826/522931/start?participant=M481805&batch_id=TYKHTP-01,441.792,435901,7.265,46,test,ADL,B start,ADL,BNS end,.png,800,;0,6000;,0 -300; 0 0; 0 -300; 0 0,comment,,,What do you think is the single best explanation for the person's chosen path?,below,5,5,t000000,0 -300;0 0;0 -300;0 0,800,48,16.66,5999,360,16.66,220501,Saw the pizza stand was close and went since Adrian is lazy,34395,
522931_231101_122442_M481805.csv,5,Chrome,118.0.0.0,1920,1080,Linux,en-GB,2023-11-01_12:17:27,2023-11-01_12:17:27,2023-10-31_10:09:10,M481805,TYKHTP-01,https://www.testable.org/experiment/6826/522931/start?participant=M481805&batch_id=TYKHTP-01,441.792,435901,7.265,43,test,FKS,A start,FKS,ANS end,.png,800,;0,6000;,0 -300; 0 0; 0 -300; 0 0,comment,,,What do you think is the single best explanation for the person's chosen path?,below,5,5,t111100,0 -300;0 0;0 -300;0 0,800,48,16.66,5999,360,16.66,250838,Taylor wanted to mix it up and have pizza instead,23538,
522931_231101_122442_M481805.csv,5,Chrome,118.0.0.0,1920,1080,Linux,en-GB,2023-11-01_12:17:27,2023-11-01_12:17:27,2023-10-31_10:09:10,M481805,TYKHTP-01,https://www.testable.org/experiment/6826/522931/start?participant=M481805&batch_id=TYKHTP-01,441.792,435901,7.265,41,test,FDS,B start,FDS,BPL end,.png,800,;0,6000;,0 -300; 0 0; 0 -300; 0 0,comment,,,What do you think is the single best explanation for the person's chosen path?,below,5,5,t101011,0 -300;0 0;0 -300;0 0,800,48,16.66,5999,360,16.66,279122,Jesse was looking for hot dogs and kept walking until he found them,21493,
522931_231101_122442_M481805.csv,5,Chrome,118.0.0.0,1920,1080,Linux,en-GB,2023-11-01_12:17:27,2023-11-01_12:17:27,2023-10-31_10:09:10,M481805,TYKHTP-01,https://www.testable.org/experiment/6826/522931/start?participant=M481805&batch_id=TYKHTP-01,441.792,435901,7.265,47,test,AKS,A start,AKS,APS end,.png,800,;0,6000;,0 -300; 0 0; 0 -300; 0 0,comment,,,What do you think is the single best explanation for the person's chosen path?,below,5,5,t011110,0 -300;0 0;0 -300;0 0,800,48,16.66,5999,360,16.66,335793,Drew wanted hot dogs.,49869,
522931_231101_122442_M481805.csv,5,Chrome,118.0.0.0,1920,1080,Linux,en-GB,2023-11-01_12:17:27,2023-11-01_12:17:27,2023-10-31_10:09:10,M481805,TYKHTP-01,https://www.testable.org/experiment/6826/522931/start?participant=M481805&batch_id=TYKHTP-01,441.792,435901,7.265,42,test,FDL,B start,FDL,BPS end,.png,800,;0,6000;,0 -300; 0 0; 0 -300; 0 0,comment,,,What do you think is the single best explanation for the person's chosen path?,below,5,5,t100010,0 -300;0 0;0 -300;0 0,800,48,16.66,5999,360,16.66,368144,Didn't fancy pizza so walked the other way hoping something else would pop up,25562,
522931_231101_122442_M481805.csv,5,Chrome,118.0.0.0,1920,1080,Linux,en-GB,2023-11-01_12:17:27,2023-11-01_12:17:27,2023-10-31_10:09:10,M481805,TYKHTP-01,https://www.testable.org/experiment/6826/522931/start?participant=M481805&batch_id=TYKHTP-01,441.792,435901,7.265,44,test,FKL,B start,FKL,BNL end,.png,800,;0,6000;,0 -300; 0 0; 0 -300; 0 0,comment,,,What do you think is the single best explanation for the person's chosen path?,below,5,5,t110001,0 -300;0 0;0 -300;0 0,800,48,16.66,5999,360,16.66,421767,Parker decided he needed some exercise as he is generally lazy and also wanted to mix it up and not eat hot dogs again,46828,
522931_231101_122442_M481805.csv,5,Chrome,118.0.0.0,1920,1080,Linux,en-GB,2023-11-01_12:17:27,2023-11-01_12:17:27,2023-10-31_10:09:10,M481805,TYKHTP-01,https://www.testable.org/experiment/6826/522931/start?participant=M481805&batch_id=TYKHTP-01,441.792,435901,7.265,74,form,,,,,,,,,,dropdown,Male;Female;Prefer not say,To which gender do you most identify?,,,5,,,,800,,,,,,435901,Female,5891,2
522931_231101_122442_M481805.csv,5,Chrome,118.0.0.0,1920,1080,Linux,en-GB,2023-11-01_12:17:27,2023-11-01_12:17:27,2023-10-31_10:09:10,M481805,TYKHTP-01,https://www.testable.org/experiment/6826/522931/start?participant=M481805&batch_id=TYKHTP-01,441.792,435901,7.265,75,form,,,,,,,,,,box,,Please state your age in the text box below.,,,5,,,,800,,,,,,435901,28,5891,NA
522931_231101_122442_M481805.csv,5,Chrome,118.0.0.0,1920,1080,Linux,en-GB,2023-11-01_12:17:27,2023-11-01_12:17:27,2023-10-31_10:09:10,M481805,TYKHTP-01,https://www.testable.org/experiment/6826/522931/start?participant=M481805&batch_id=TYKHTP-01,441.792,435901,7.265,76,form,,,,,,,,,,comment,,Do you have any comments or feedback regarding the experiment?,,,5,,,,800,,,,,,435901,NA,5891,NA
522931_231101_122450_M669519.csv,1,Safari,15.1,1440,900,MacOS,en-GB,2023-11-01_12:17:42,2023-11-01_12:17:42,2023-10-31_10:09:10,M669519,TYKHTP-01,https://www.testable.org/experiment/6826/522931/start?participant=M669519&batch_id=TYKHTP-01,435.372,428437,7.1406,15,test,AKS,B start,AKS,BPS end,.png,800,;0,6000;,0 -300; 0 0; 0 -300; 0 0,comment,,,What do you think is the single best explanation for the person's chosen path?,below,1,1,t011010,0 -300;0 0;0 -300;0 0,800,24,33.33,6001,180,33.34,124967,He knows the area well,21274,
522931_231101_122450_M669519.csv,1,Safari,15.1,1440,900,MacOS,en-GB,2023-11-01_12:17:42,2023-11-01_12:17:42,2023-10-31_10:09:10,M669519,TYKHTP-01,https://www.testable.org/experiment/6826/522931/start?participant=M669519&batch_id=TYKHTP-01,435.372,428437,7.1406,13,test,ADS,B start,ADS,BNL end,.png,800,;0,6000;,0 -300; 0 0; 0 -300; 0 0,comment,,,What do you think is the single best explanation for the person's chosen path?,below,1,1,t001001,0 -300;0 0;0 -300;0 0,800,24,33.33,6001,180,33.34,170986,he is sporty and wanted to walk all the way around to see what was there,39230,
522931_231101_122450_M669519.csv,1,Safari,15.1,1440,900,MacOS,en-GB,2023-11-01_12:17:42,2023-11-01_12:17:42,2023-10-31_10:09:10,M669519,TYKHTP-01,https://www.testable.org/experiment/6826/522931/start?participant=M669519&batch_id=TYKHTP-01,435.372,428437,7.1406,11,test,FKS,B start,FKS,BNS end,.png,800,;0,6000;,0 -300; 0 0; 0 -300; 0 0,comment,,,What do you think is the single best explanation for the person's chosen path?,below,1,1,t111000,0 -300;0 0;0 -300;0 0,800,24,33.33,6002,180,33.34,215904,they wanted to have something different to eat,38115,
522931_231101_122450_M669519.csv,1,Safari,15.1,1440,900,MacOS,en-GB,2023-11-01_12:17:42,2023-11-01_12:17:42,2023-10-31_10:09:10,M669519,TYKHTP-01,https://www.testable.org/experiment/6826/522931/start?participant=M669519&batch_id=TYKHTP-01,435.372,428437,7.1406,12,test,FKL,A start,FKL,ANL end,.png,800,;0,6000;,0 -300; 0 0; 0 -300; 0 0,comment,,,What do you think is the single best explanation for the person's chosen path?,below,1,1,t110101,0 -300;0 0;0 -300;0 0,800,24,33.33,6001,180,33.34,274675,they did not fancy a hotdog today so carried on walking,51984,
522931_231101_122450_M669519.csv,1,Safari,15.1,1440,900,MacOS,en-GB,2023-11-01_12:17:42,2023-11-01_12:17:42,2023-10-31_10:09:10,M669519,TYKHTP-01,https://www.testable.org/experiment/6826/522931/start?participant=M669519&batch_id=TYKHTP-01,435.372,428437,7.1406,14,test,ADL,A start,ADL,ANS end,.png,800,;0,6000;,0 -300; 0 0; 0 -300; 0 0,comment,,,What do you think is the single best explanation for the person's chosen path?,below,1,1,t000100,0 -300;0 0;0 -300;0 0,800,24,33.33,6000,180,33.33,312159,stopped at the first place he came across,30698,
522931_231101_122450_M669519.csv,1,Safari,15.1,1440,900,MacOS,en-GB,2023-11-01_12:17:42,2023-11-01_12:17:42,2023-10-31_10:09:10,M669519,TYKHTP-01,https://www.testable.org/experiment/6826/522931/start?participant=M669519&batch_id=TYKHTP-01,435.372,428437,7.1406,16,test,AKL,B start,AKL,BPL end,.png,800,;0,6000;,0 -300; 0 0; 0 -300; 0 0,comment,,,What do you think is the single best explanation for the person's chosen path?,below,1,1,t010011,0 -300;0 0;0 -300;0 0,799,24,33.29,6001,180,33.34,342027,He decided to have a longer walk for achange,23060,
522931_231101_122450_M669519.csv,1,Safari,15.1,1440,900,MacOS,en-GB,2023-11-01_12:17:42,2023-11-01_12:17:42,2023-10-31_10:09:10,M669519,TYKHTP-01,https://www.testable.org/experiment/6826/522931/start?participant=M669519&batch_id=TYKHTP-01,435.372,428437,7.1406,10,test,FDL,A start,FDL,APS end,.png,800,;0,6000;,0 -300; 0 0; 0 -300; 0 0,comment,,,What do you think is the single best explanation for the person's chosen path?,below,1,1,t100110,0 -300;0 0;0 -300;0 0,800,24,33.33,6000,180,33.33,366012,he is lazy and prefers hotdogs,17181,
522931_231101_122450_M669519.csv,1,Safari,15.1,1440,900,MacOS,en-GB,2023-11-01_12:17:42,2023-11-01_12:17:42,2023-10-31_10:09:10,M669519,TYKHTP-01,https://www.testable.org/experiment/6826/522931/start?participant=M669519&batch_id=TYKHTP-01,435.372,428437,7.1406,9,test,FDS,A start,FDS,APL end,.png,800,;0,6000;,0 -300; 0 0; 0 -300; 0 0,comment,,,What do you think is the single best explanation for the person's chosen path?,below,1,1,t101111,0 -300;0 0;0 -300;0 0,800,24,33.33,6000,180,33.33,414830,they are sporty and dont know the area well so kept on walking,42028,
522931_231101_122450_M669519.csv,1,Safari,15.1,1440,900,MacOS,en-GB,2023-11-01_12:17:42,2023-11-01_12:17:42,2023-10-31_10:09:10,M669519,TYKHTP-01,https://www.testable.org/experiment/6826/522931/start?participant=M669519&batch_id=TYKHTP-01,435.372,428437,7.1406,74,form,,,,,,,,,,dropdown,Male;Female;Prefer not say,To which gender do you most identify?,,,1,,,,800,,,,,,428437,Female,6935,2
522931_231101_122450_M669519.csv,1,Safari,15.1,1440,900,MacOS,en-GB,2023-11-01_12:17:42,2023-11-01_12:17:42,2023-10-31_10:09:10,M669519,TYKHTP-01,https://www.testable.org/experiment/6826/522931/start?participant=M669519&batch_id=TYKHTP-01,435.372,428437,7.1406,75,form,,,,,,,,,,box,,Please state your age in the text box below.,,,1,,,,800,,,,,,428437,48,6935,NA
522931_231101_122450_M669519.csv,1,Safari,15.1,1440,900,MacOS,en-GB,2023-11-01_12:17:42,2023-11-01_12:17:42,2023-10-31_10:09:10,M669519,TYKHTP-01,https://www.testable.org/experiment/6826/522931/start?participant=M669519&batch_id=TYKHTP-01,435.372,428437,7.1406,76,form,,,,,,,,,,comment,,Do you have any comments or feedback regarding the experiment?,,,1,,,,800,,,,,,428437,NA,6935,NA
522931_231101_122607_M091317.csv,8,Safari,16.6,1440,900,MacOS,en-GB,2023-11-01_12:17:36,2023-11-01_12:17:36,2023-10-31_10:09:10,M091317,TYKHTP-01,https://www.testable.org/experiment/6826/522931/start?participant=M091317&batch_id=TYKHTP-01,522.177,511020,8.517,70,test,ADL,A start,ADL,ANL end,.png,800,;0,6000;,0 -300; 0 0; 0 -300; 0 0,comment,,,What do you think is the single best explanation for the person's chosen path?,below,8,8,t000101,0 -300;0 0;0 -300;0 0,806,48,16.79,5998,356,16.85,171266,Adrian took this path because they dont know the area well,60794,
522931_231101_122607_M091317.csv,8,Safari,16.6,1440,900,MacOS,en-GB,2023-11-01_12:17:36,2023-11-01_12:17:36,2023-10-31_10:09:10,M091317,TYKHTP-01,https://www.testable.org/experiment/6826/522931/start?participant=M091317&batch_id=TYKHTP-01,522.177,511020,8.517,69,test,ADS,B start,ADS,BPS end,.png,800,;0,6000;,0 -300; 0 0; 0 -300; 0 0,comment,,,What do you think is the single best explanation for the person's chosen path?,below,8,8,t001010,0 -300;0 0;0 -300;0 0,792,47,16.85,6000,355,16.9,218802,Brooklyn chose this path because they are sporty,40739,
522931_231101_122607_M091317.csv,8,Safari,16.6,1440,900,MacOS,en-GB,2023-11-01_12:17:36,2023-11-01_12:17:36,2023-10-31_10:09:10,M091317,TYKHTP-01,https://www.testable.org/experiment/6826/522931/start?participant=M091317&batch_id=TYKHTP-01,522.177,511020,8.517,71,test,AKS,B start,AKS,BPL end,.png,800,;0,6000;,0 -300; 0 0; 0 -300; 0 0,comment,,,What do you think is the single best explanation for the person's chosen path?,below,8,8,t011011,0 -300;0 0;0 -300;0 0,792,47,16.85,5996,356,16.84,270222,Drew chose this path because they are sporty,44625,
522931_231101_122607_M091317.csv,8,Safari,16.6,1440,900,MacOS,en-GB,2023-11-01_12:17:36,2023-11-01_12:17:36,2023-10-31_10:09:10,M091317,TYKHTP-01,https://www.testable.org/experiment/6826/522931/start?participant=M091317&batch_id=TYKHTP-01,522.177,511020,8.517,65,test,FDS,B start,FDS,BNS end,.png,800,;0,6000;,0 -300; 0 0; 0 -300; 0 0,comment,,,What do you think is the single best explanation for the person's chosen path?,below,8,8,t101000,0 -300;0 0;0 -300;0 0,806,48,16.79,5995,356,16.84,313632,Jesse took this path because they don't know the area well,36601,
522931_231101_122607_M091317.csv,8,Safari,16.6,1440,900,MacOS,en-GB,2023-11-01_12:17:36,2023-11-01_12:17:36,2023-10-31_10:09:10,M091317,TYKHTP-01,https://www.testable.org/experiment/6826/522931/start?participant=M091317&batch_id=TYKHTP-01,522.177,511020,8.517,67,test,FKS,B start,FKS,BNL end,.png,800,;0,6000;,0 -300; 0 0; 0 -300; 0 0,comment,,,What do you think is the single best explanation for the person's chosen path?,below,8,8,t111001,0 -300;0 0;0 -300;0 0,792,47,16.85,6007,356,16.87,361579,Taylor took this path because they are sporty,41143,
522931_231101_122607_M091317.csv,8,Safari,16.6,1440,900,MacOS,en-GB,2023-11-01_12:17:36,2023-11-01_12:17:36,2023-10-31_10:09:10,M091317,TYKHTP-01,https://www.testable.org/experiment/6826/522931/start?participant=M091317&batch_id=TYKHTP-01,522.177,511020,8.517,66,test,FDL,A start,FDL,APL end,.png,800,;0,6000;,0 -300; 0 0; 0 -300; 0 0,comment,,,What do you think is the single best explanation for the person's chosen path?,below,8,8,t100111,0 -300;0 0;0 -300;0 0,798,48,16.63,5993,356,16.83,409191,Harper took this path because their favorite food is hot dogs,40820,
522931_231101_122607_M091317.csv,8,Safari,16.6,1440,900,MacOS,en-GB,2023-11-01_12:17:36,2023-11-01_12:17:36,2023-10-31_10:09:10,M091317,TYKHTP-01,https://www.testable.org/experiment/6826/522931/start?participant=M091317&batch_id=TYKHTP-01,522.177,511020,8.517,68,test,FKL,A start,FKL,APS end,.png,800,;0,6000;,0 -300; 0 0; 0 -300; 0 0,comment,,,What do you think is the single best explanation for the person's chosen path?,below,8,8,t110110,0 -300;0 0;0 -300;0 0,803,48,16.73,6005,356,16.87,451815,Parker took this path because they know the area well,35809,
522931_231101_122607_M091317.csv,8,Safari,16.6,1440,900,MacOS,en-GB,2023-11-01_12:17:36,2023-11-01_12:17:36,2023-10-31_10:09:10,M091317,TYKHTP-01,https://www.testable.org/experiment/6826/522931/start?participant=M091317&batch_id=TYKHTP-01,522.177,511020,8.517,72,test,AKL,A start,AKL,ANS end,.png,800,;0,6000;,0 -300; 0 0; 0 -300; 0 0,comment,,,What do you think is the single best explanation for the person's chosen path?,below,8,8,t010100,0 -300;0 0;0 -300;0 0,807,48,16.81,6002,356,16.86,491715,Charlie took this path because they know the area well,33083,
522931_231101_122607_M091317.csv,8,Safari,16.6,1440,900,MacOS,en-GB,2023-11-01_12:17:36,2023-11-01_12:17:36,2023-10-31_10:09:10,M091317,TYKHTP-01,https://www.testable.org/experiment/6826/522931/start?participant=M091317&batch_id=TYKHTP-01,522.177,511020,8.517,74,form,,,,,,,,,,dropdown,Male;Female;Prefer not say,To which gender do you most identify?,,,8,,,,807,,,,,,511020,Male,11157,1
522931_231101_122607_M091317.csv,8,Safari,16.6,1440,900,MacOS,en-GB,2023-11-01_12:17:36,2023-11-01_12:17:36,2023-10-31_10:09:10,M091317,TYKHTP-01,https://www.testable.org/experiment/6826/522931/start?participant=M091317&batch_id=TYKHTP-01,522.177,511020,8.517,75,form,,,,,,,,,,box,,Please state your age in the text box below.,,,8,,,,807,,,,,,511020,36,11157,NA
522931_231101_122607_M091317.csv,8,Safari,16.6,1440,900,MacOS,en-GB,2023-11-01_12:17:36,2023-11-01_12:17:36,2023-10-31_10:09:10,M091317,TYKHTP-01,https://www.testable.org/experiment/6826/522931/start?participant=M091317&batch_id=TYKHTP-01,522.177,511020,8.517,76,form,,,,,,,,,,comment,,Do you have any comments or feedback regarding the experiment?,,,8,,,,807,,,,,,511020,NA,11157,NA
522931_231101_122916_M078144.csv,7,Microsoft Edge,118.0.2088.76,1536,864,Windows,en-GB,2023-11-01_12:17:50,2023-11-01_12:17:50,2023-10-31_10:09:10,M078144,TYKHTP-01,https://www.testable.org/experiment/6826/522931/start?participant=M078144&batch_id=TYKHTP-01,706.984,686612,11.4435,62,test,ADL,A start,ADL,APS end,.png,800,;0,6000;,0 -300; 0 0; 0 -300; 0 0,comment,,,What do you think is the single best explanation for the person's chosen path?,below,7,7,t000110,0 -300;0 0;0 -300;0 0,799,48,16.65,5994,360,16.65,285973,he goes to the hot dog stand as he is lazy and doesn't want to walk any further to investigate,39110,
522931_231101_122916_M078144.csv,7,Microsoft Edge,118.0.2088.76,1536,864,Windows,en-GB,2023-11-01_12:17:50,2023-11-01_12:17:50,2023-10-31_10:09:10,M078144,TYKHTP-01,https://www.testable.org/experiment/6826/522931/start?participant=M078144&batch_id=TYKHTP-01,706.984,686612,11.4435,58,test,FDL,B start,FDL,BNS end,.png,800,;0,6000;,0 -300; 0 0; 0 -300; 0 0,comment,,,What do you think is the single best explanation for the person's chosen path?,below,7,7,t100000,0 -300;0 0;0 -300;0 0,800,48,16.66,5994,360,16.65,320829,He goes to the pizza stand as he is lazy,28062,
522931_231101_122916_M078144.csv,7,Microsoft Edge,118.0.2088.76,1536,864,Windows,en-GB,2023-11-01_12:17:50,2023-11-01_12:17:50,2023-10-31_10:09:10,M078144,TYKHTP-01,https://www.testable.org/experiment/6826/522931/start?participant=M078144&batch_id=TYKHTP-01,706.984,686612,11.4435,57,test,FDS,B start,FDS,BNL end,.png,800,;0,6000;,0 -300; 0 0; 0 -300; 0 0,comment,,,What do you think is the single best explanation for the person's chosen path?,below,7,7,t101001,0 -300;0 0;0 -300;0 0,799,48,16.65,5995,360,16.65,368644,Jesse decided that she wan't in the mood for hot dogs today.,41027,
522931_231101_122916_M078144.csv,7,Microsoft Edge,118.0.2088.76,1536,864,Windows,en-GB,2023-11-01_12:17:50,2023-11-01_12:17:50,2023-10-31_10:09:10,M078144,TYKHTP-01,https://www.testable.org/experiment/6826/522931/start?participant=M078144&batch_id=TYKHTP-01,706.984,686612,11.4435,60,test,FKL,A start,FKL,APL end,.png,800,;0,6000;,0 -300; 0 0; 0 -300; 0 0,comment,,,What do you think is the single best explanation for the person's chosen path?,below,7,7,t110111,0 -300;0 0;0 -300;0 0,800,48,16.66,5994,360,16.65,444785,Parker definitely didn't want pizza but needed the walk,69346,
522931_231101_122916_M078144.csv,7,Microsoft Edge,118.0.2088.76,1536,864,Windows,en-GB,2023-11-01_12:17:50,2023-11-01_12:17:50,2023-10-31_10:09:10,M078144,TYKHTP-01,https://www.testable.org/experiment/6826/522931/start?participant=M078144&batch_id=TYKHTP-01,706.984,686612,11.4435,59,test,FKS,B start,FKS,BPS end,.png,800,;0,6000;,0 -300; 0 0; 0 -300; 0 0,comment,,,What do you think is the single best explanation for the person's chosen path?,below,7,7,t111010,0 -300;0 0;0 -300;0 0,799,48,16.64,5995,360,16.65,513045,he wanted hot dogs so took the direct route as he was hungry and had been out running already today.,61477,
522931_231101_122916_M078144.csv,7,Microsoft Edge,118.0.2088.76,1536,864,Windows,en-GB,2023-11-01_12:17:50,2023-11-01_12:17:50,2023-10-31_10:09:10,M078144,TYKHTP-01,https://www.testable.org/experiment/6826/522931/start?participant=M078144&batch_id=TYKHTP-01,706.984,686612,11.4435,61,test,ADS,B start,ADS,BPL end,.png,800,;0,6000;,0 -300; 0 0; 0 -300; 0 0,comment,,,What do you think is the single best explanation for the person's chosen path?,below,7,7,t001011,0 -300;0 0;0 -300;0 0,800,48,16.66,5994,360,16.65,577281,Brooklyn didn't want pizza so continued on her route and decided to have hot dog when she discovered the stand.,57443,
522931_231101_122916_M078144.csv,7,Microsoft Edge,118.0.2088.76,1536,864,Windows,en-GB,2023-11-01_12:17:50,2023-11-01_12:17:50,2023-10-31_10:09:10,M078144,TYKHTP-01,https://www.testable.org/experiment/6826/522931/start?participant=M078144&batch_id=TYKHTP-01,706.984,686612,11.4435,63,test,AKS,A start,AKS,ANS end,.png,800,;0,6000;,0 -300; 0 0; 0 -300; 0 0,comment,,,What do you think is the single best explanation for the person's chosen path?,below,7,7,t011100,0 -300;0 0;0 -300;0 0,800,48,16.66,5994,360,16.65,601892,he know he wanted to buy pizza,17815,
522931_231101_122916_M078144.csv,7,Microsoft Edge,118.0.2088.76,1536,864,Windows,en-GB,2023-11-01_12:17:50,2023-11-01_12:17:50,2023-10-31_10:09:10,M078144,TYKHTP-01,https://www.testable.org/experiment/6826/522931/start?participant=M078144&batch_id=TYKHTP-01,706.984,686612,11.4435,64,test,AKL,A start,AKL,ANL end,.png,800,;0,6000;,0 -300; 0 0; 0 -300; 0 0,comment,,,What do you think is the single best explanation for the person's chosen path?,below,7,7,t010101,0 -300;0 0;0 -300;0 0,800,48,16.66,5994,360,16.65,656891,He thought he wanted hot dogs but when he reached the stand decided he wanted pizza instead.,48204,
522931_231101_122916_M078144.csv,7,Microsoft Edge,118.0.2088.76,1536,864,Windows,en-GB,2023-11-01_12:17:50,2023-11-01_12:17:50,2023-10-31_10:09:10,M078144,TYKHTP-01,https://www.testable.org/experiment/6826/522931/start?participant=M078144&batch_id=TYKHTP-01,706.984,686612,11.4435,74,form,,,,,,,,,,dropdown,Male;Female;Prefer not say,To which gender do you most identify?,,,7,,,,800,,,,,,686612,Female,20372,2
522931_231101_122916_M078144.csv,7,Microsoft Edge,118.0.2088.76,1536,864,Windows,en-GB,2023-11-01_12:17:50,2023-11-01_12:17:50,2023-10-31_10:09:10,M078144,TYKHTP-01,https://www.testable.org/experiment/6826/522931/start?participant=M078144&batch_id=TYKHTP-01,706.984,686612,11.4435,75,form,,,,,,,,,,box,,Please state your age in the text box below.,,,7,,,,800,,,,,,686612,58,20372,NA
522931_231101_122916_M078144.csv,7,Microsoft Edge,118.0.2088.76,1536,864,Windows,en-GB,2023-11-01_12:17:50,2023-11-01_12:17:50,2023-10-31_10:09:10,M078144,TYKHTP-01,https://www.testable.org/experiment/6826/522931/start?participant=M078144&batch_id=TYKHTP-01,706.984,686612,11.4435,76,form,,,,,,,,,,comment,,Do you have any comments or feedback regarding the experiment?,,,7,,,,800,,,,,,686612,it was enjoyabe!,20372,NA
522931_231101_123121_M043484.csv,4,Chrome,118.0.0.0,1710,1107,MacOS,en-GB,2023-11-01_12:17:26,2023-11-01_12:17:26,2023-10-31_10:09:10,M043484,TYKHTP-01,https://www.testable.org/experiment/6826/522931/start?participant=M043484&batch_id=TYKHTP-01,969.074,835337,13.9222,38,test,ADL,B start,ADL,BNL end,.png,800,;0,6000;,0 -300; 0 0; 0 -300; 0 0,comment,,,What do you think is the single best explanation for the person's chosen path?,below,4,4,t000001,0 -300;0 0;0 -300;0 0,800,48,16.67,6000,360,16.67,499117,They were looking for pizza and didn't know the area well,25882,
522931_231101_123121_M043484.csv,4,Chrome,118.0.0.0,1710,1107,MacOS,en-GB,2023-11-01_12:17:26,2023-11-01_12:17:26,2023-10-31_10:09:10,M043484,TYKHTP-01,https://www.testable.org/experiment/6826/522931/start?participant=M043484&batch_id=TYKHTP-01,969.074,835337,13.9222,40,test,AKL,B start,AKL,BNS end,.png,800,;0,6000;,0 -300; 0 0; 0 -300; 0 0,comment,,,What do you think is the single best explanation for the person's chosen path?,below,4,4,t010000,0 -300;0 0;0 -300;0 0,800,48,16.67,6000,360,16.67,526222,Charlie wanted pizza and didn't want to walk far,20305,
522931_231101_123121_M043484.csv,4,Chrome,118.0.0.0,1710,1107,MacOS,en-GB,2023-11-01_12:17:26,2023-11-01_12:17:26,2023-10-31_10:09:10,M043484,TYKHTP-01,https://www.testable.org/experiment/6826/522931/start?participant=M043484&batch_id=TYKHTP-01,969.074,835337,13.9222,35,test,FKS,A start,FKS,ANL end,.png,800,;0,6000;,0 -300; 0 0; 0 -300; 0 0,comment,,,What do you think is the single best explanation for the person's chosen path?,below,4,4,t111101,0 -300;0 0;0 -300;0 0,800,48,16.67,6000,360,16.67,555966,Taylor wanted more exercise today,22953,
522931_231101_123121_M043484.csv,4,Chrome,118.0.0.0,1710,1107,MacOS,en-GB,2023-11-01_12:17:26,2023-11-01_12:17:26,2023-10-31_10:09:10,M043484,TYKHTP-01,https://www.testable.org/experiment/6826/522931/start?participant=M043484&batch_id=TYKHTP-01,969.074,835337,13.9222,33,test,FDS,A start,FDS,ANS end,.png,800,;0,6000;,0 -300; 0 0; 0 -300; 0 0,comment,,,What do you think is the single best explanation for the person's chosen path?,below,4,4,t101100,0 -300;0 0;0 -300;0 0,800,48,16.67,6000,360,16.67,585789,Jesse didn't know where the hot dog stand was so stopped for pizza,23028,
522931_231101_123121_M043484.csv,4,Chrome,118.0.0.0,1710,1107,MacOS,en-GB,2023-11-01_12:17:26,2023-11-01_12:17:26,2023-10-31_10:09:10,M043484,TYKHTP-01,https://www.testable.org/experiment/6826/522931/start?participant=M043484&batch_id=TYKHTP-01,969.074,835337,13.9222,36,test,FKL,B start,FKL,BPS end,.png,800,;0,6000;,0 -300; 0 0; 0 -300; 0 0,comment,,,What do you think is the single best explanation for the person's chosen path?,below,4,4,t110010,0 -300;0 0;0 -300;0 0,800,48,16.67,6000,360,16.67,611964,Parker want straight for a hot dogs,19382,
522931_231101_123121_M043484.csv,4,Chrome,118.0.0.0,1710,1107,MacOS,en-GB,2023-11-01_12:17:26,2023-11-01_12:17:26,2023-10-31_10:09:10,M043484,TYKHTP-01,https://www.testable.org/experiment/6826/522931/start?participant=M043484&batch_id=TYKHTP-01,969.074,835337,13.9222,39,test,AKS,A start,AKS,APL end,.png,800,;0,6000;,0 -300; 0 0; 0 -300; 0 0,comment,,,What do you think is the single best explanation for the person's chosen path?,below,4,4,t011111,0 -300;0 0;0 -300;0 0,800,48,16.67,6000,360,16.67,638654,Drew wanted exercise before getting hot dogs,19886,
522931_231101_123121_M043484.csv,4,Chrome,118.0.0.0,1710,1107,MacOS,en-GB,2023-11-01_12:17:26,2023-11-01_12:17:26,2023-10-31_10:09:10,M043484,TYKHTP-01,https://www.testable.org/experiment/6826/522931/start?participant=M043484&batch_id=TYKHTP-01,969.074,835337,13.9222,34,test,FDL,B start,FDL,BPL end,.png,800,;0,6000;,0 -300; 0 0; 0 -300; 0 0,comment,,,What do you think is the single best explanation for the person's chosen path?,below,4,4,t100011,0 -300;0 0;0 -300;0 0,800,48,16.67,6000,360,16.67,671765,Harper didn't know the quickest route to take,26315,
522931_231101_123121_M043484.csv,4,Chrome,118.0.0.0,1710,1107,MacOS,en-GB,2023-11-01_12:17:26,2023-11-01_12:17:26,2023-10-31_10:09:10,M043484,TYKHTP-01,https://www.testable.org/experiment/6826/522931/start?participant=M043484&batch_id=TYKHTP-01,969.074,835337,13.9222,37,test,ADS,A start,ADS,APS end,.png,800,;0,6000;,0 -300; 0 0; 0 -300; 0 0,comment,,,What do you think is the single best explanation for the person's chosen path?,below,4,4,t001110,0 -300;0 0;0 -300;0 0,800,48,16.67,6000,360,16.67,695602,Brookly decided on hot dogs when they saw the stand,17036,
522931_231101_123121_M043484.csv,4,Chrome,118.0.0.0,1710,1107,MacOS,en-GB,2023-11-01_12:17:26,2023-11-01_12:17:26,2023-10-31_10:09:10,M043484,TYKHTP-01,https://www.testable.org/experiment/6826/522931/start?participant=M043484&batch_id=TYKHTP-01,969.074,835337,13.9222,74,form,,,,,,,,,,dropdown,Male;Female;Prefer not say,To which gender do you most identify?,,,4,,,,800,,,,,,835337,Male,133737,1
522931_231101_123121_M043484.csv,4,Chrome,118.0.0.0,1710,1107,MacOS,en-GB,2023-11-01_12:17:26,2023-11-01_12:17:26,2023-10-31_10:09:10,M043484,TYKHTP-01,https://www.testable.org/experiment/6826/522931/start?participant=M043484&batch_id=TYKHTP-01,969.074,835337,13.9222,75,form,,,,,,,,,,box,,Please state your age in the text box below.,,,4,,,,800,,,,,,835337,43,133737,NA
522931_231101_123121_M043484.csv,4,Chrome,118.0.0.0,1710,1107,MacOS,en-GB,2023-11-01_12:17:26,2023-11-01_12:17:26,2023-10-31_10:09:10,M043484,TYKHTP-01,https://www.testable.org/experiment/6826/522931/start?participant=M043484&batch_id=TYKHTP-01,969.074,835337,13.9222,76,form,,,,,,,,,,comment,,Do you have any comments or feedback regarding the experiment?,,,4,,,,800,,,,,,835337,NA,133737,NA
522931_231101_124806_M541462.csv,2,Chrome,118.0.0.0,1280,720,Windows,en-GB,2023-11-01_12:17:20,2023-11-01_12:17:20,2023-10-31_10:09:10,M541462,TYKHTP-01,https://www.testable.org/experiment/6826/522931/start?participant=M541462&batch_id=TYKHTP-01,1852.48,1846610,30.7768,19,test,FKS,A start,FKS,APL end,.png,800,;0,6000;,0 -300; 0 0; 0 -300; 0 0,comment,,,What do you think is the single best explanation for the person's chosen path?,below,2,2,t111111,0 -300;0 0;0 -300;0 0,801,48,16.69,6007,360,16.68,1505298,Taylor took the long route because he wanted to get some exercise.,282454,
522931_231101_124806_M541462.csv,2,Chrome,118.0.0.0,1280,720,Windows,en-GB,2023-11-01_12:17:20,2023-11-01_12:17:20,2023-10-31_10:09:10,M541462,TYKHTP-01,https://www.testable.org/experiment/6826/522931/start?participant=M541462&batch_id=TYKHTP-01,1852.48,1846610,30.7768,21,test,ADS,B start,ADS,BNS end,.png,800,;0,6000;,0 -300; 0 0; 0 -300; 0 0,comment,,,What do you think is the single best explanation for the person's chosen path?,below,2,2,t001000,0 -300;0 0;0 -300;0 0,801,48,16.68,6007,360,16.69,1552973,Brooklyn choose to go to the Pizza van as it was the only one they could see and they didn't know the area.,40871,
522931_231101_124806_M541462.csv,2,Chrome,118.0.0.0,1280,720,Windows,en-GB,2023-11-01_12:17:20,2023-11-01_12:17:20,2023-10-31_10:09:10,M541462,TYKHTP-01,https://www.testable.org/experiment/6826/522931/start?participant=M541462&batch_id=TYKHTP-01,1852.48,1846610,30.7768,22,test,ADL,B start,ADL,BPL end,.png,800,;0,6000;,0 -300; 0 0; 0 -300; 0 0,comment,,,What do you think is the single best explanation for the person's chosen path?,below,2,2,t000011,0 -300;0 0;0 -300;0 0,801,48,16.69,6007,360,16.68,1602189,"Adrian does not like pizza, and so despite being lazy he continued to walk until he found the other option.",42419,
522931_231101_124806_M541462.csv,2,Chrome,118.0.0.0,1280,720,Windows,en-GB,2023-11-01_12:17:20,2023-11-01_12:17:20,2023-10-31_10:09:10,M541462,TYKHTP-01,https://www.testable.org/experiment/6826/522931/start?participant=M541462&batch_id=TYKHTP-01,1852.48,1846610,30.7768,17,test,FDS,A start,FDS,APS end,.png,800,;0,6000;,0 -300; 0 0; 0 -300; 0 0,comment,,,What do you think is the single best explanation for the person's chosen path?,below,2,2,t101110,0 -300;0 0;0 -300;0 0,801,48,16.69,6007,360,16.69,1635885,Jesse could see their favourite food van and so went directly to it.,26894,
522931_231101_124806_M541462.csv,2,Chrome,118.0.0.0,1280,720,Windows,en-GB,2023-11-01_12:17:20,2023-11-01_12:17:20,2023-10-31_10:09:10,M541462,TYKHTP-01,https://www.testable.org/experiment/6826/522931/start?participant=M541462&batch_id=TYKHTP-01,1852.48,1846610,30.7768,20,test,FKL,A start,FKL,ANS end,.png,800,;0,6000;,0 -300; 0 0; 0 -300; 0 0,comment,,,What do you think is the single best explanation for the person's chosen path?,below,2,2,t110100,0 -300;0 0;0 -300;0 0,801,48,16.68,6007,360,16.69,1684221,Parker thought the Hot Dog van he could see was too far away and decided to see if the hot dog van was closer.,41528,
522931_231101_124806_M541462.csv,2,Chrome,118.0.0.0,1280,720,Windows,en-GB,2023-11-01_12:17:20,2023-11-01_12:17:20,2023-10-31_10:09:10,M541462,TYKHTP-01,https://www.testable.org/experiment/6826/522931/start?participant=M541462&batch_id=TYKHTP-01,1852.48,1846610,30.7768,23,test,AKS,B start,AKS,BNL end,.png,800,;0,6000;,0 -300; 0 0; 0 -300; 0 0,comment,,,What do you think is the single best explanation for the person's chosen path?,below,2,2,t011001,0 -300;0 0;0 -300;0 0,801,48,16.69,6007,360,16.69,1723621,"Being sporty, Drew decided to go the long way round to get to the pizza van.",32592,
522931_231101_124806_M541462.csv,2,Chrome,118.0.0.0,1280,720,Windows,en-GB,2023-11-01_12:17:20,2023-11-01_12:17:20,2023-10-31_10:09:10,M541462,TYKHTP-01,https://www.testable.org/experiment/6826/522931/start?participant=M541462&batch_id=TYKHTP-01,1852.48,1846610,30.7768,18,test,FDL,A start,FDL,ANL end,.png,800,;0,6000;,0 -300; 0 0; 0 -300; 0 0,comment,,,What do you think is the single best explanation for the person's chosen path?,below,2,2,t100101,0 -300;0 0;0 -300;0 0,801,48,16.69,6006,360,16.68,1794717,Haper though they should do some exercise that day as they felt guilty about being lazy.,64293,
522931_231101_124806_M541462.csv,2,Chrome,118.0.0.0,1280,720,Windows,en-GB,2023-11-01_12:17:20,2023-11-01_12:17:20,2023-10-31_10:09:10,M541462,TYKHTP-01,https://www.testable.org/experiment/6826/522931/start?participant=M541462&batch_id=TYKHTP-01,1852.48,1846610,30.7768,24,test,AKL,B start,AKL,BPS end,.png,800,;0,6000;,0 -300; 0 0; 0 -300; 0 0,comment,,,What do you think is the single best explanation for the person's chosen path?,below,2,2,t010010,0 -300;0 0;0 -300;0 0,801,48,16.68,6007,360,16.68,1831573,As Charlie knows the area well he knew the Hot Dog van wouldn't be too far away and decide to walk towards it.,30053,
522931_231101_124806_M541462.csv,2,Chrome,118.0.0.0,1280,720,Windows,en-GB,2023-11-01_12:17:20,2023-11-01_12:17:20,2023-10-31_10:09:10,M541462,TYKHTP-01,https://www.testable.org/experiment/6826/522931/start?participant=M541462&batch_id=TYKHTP-01,1852.48,1846610,30.7768,74,form,,,,,,,,,,dropdown,Male;Female;Prefer not say,To which gender do you most identify?,,,2,,,,801,,,,,,1846610,Male,5870,1
522931_231101_124806_M541462.csv,2,Chrome,118.0.0.0,1280,720,Windows,en-GB,2023-11-01_12:17:20,2023-11-01_12:17:20,2023-10-31_10:09:10,M541462,TYKHTP-01,https://www.testable.org/experiment/6826/522931/start?participant=M541462&batch_id=TYKHTP-01,1852.48,1846610,30.7768,75,form,,,,,,,,,,box,,Please state your age in the text box below.,,,2,,,,801,,,,,,1846610,39,5870,NA
522931_231101_124806_M541462.csv,2,Chrome,118.0.0.0,1280,720,Windows,en-GB,2023-11-01_12:17:20,2023-11-01_12:17:20,2023-10-31_10:09:10,M541462,TYKHTP-01,https://www.testable.org/experiment/6826/522931/start?participant=M541462&batch_id=TYKHTP-01,1852.48,1846610,30.7768,76,form,,,,,,,,,,comment,,Do you have any comments or feedback regarding the experiment?,,,2,,,,801,,,,,,1846610,NA,5870,NA
522931_231101_125359_M058012.csv,3,Chrome,118.0.0.0,1280,720,Windows,en-US,2023-11-01_12:17:41,2023-11-01_12:17:41,2023-10-31_10:09:10,M058012,TYKHTP-01,https://www.testable.org/experiment/6826/522931/start?participant=M058012&batch_id=TYKHTP-01,2462.431,2179182,36.3197,26,test,FDL,A start,FDL,ANS end,.png,800,;0,6000;,0 -300; 0 0; 0 -300; 0 0,comment,,,What do you think is the single best explanation for the person's chosen path?,below,3,3,t100100,0 -300;0 0;0 -300;0 0,797,48,16.61,5999,360,16.66,1191987,They thought there would be a closer food vendor.,51654,
522931_231101_125359_M058012.csv,3,Chrome,118.0.0.0,1280,720,Windows,en-US,2023-11-01_12:17:41,2023-11-01_12:17:41,2023-10-31_10:09:10,M058012,TYKHTP-01,https://www.testable.org/experiment/6826/522931/start?participant=M058012&batch_id=TYKHTP-01,2462.431,2179182,36.3197,25,test,FDS,A start,FDS,ANL end,.png,800,;0,6000;,0 -300; 0 0; 0 -300; 0 0,comment,,,What do you think is the single best explanation for the person's chosen path?,below,3,3,t101101,0 -300;0 0;0 -300;0 0,799,48,16.65,5996,360,16.65,1340592,The hot dog vendor was no longer selling hot dogs.,141806,
522931_231101_125359_M058012.csv,3,Chrome,118.0.0.0,1280,720,Windows,en-US,2023-11-01_12:17:41,2023-11-01_12:17:41,2023-10-31_10:09:10,M058012,TYKHTP-01,https://www.testable.org/experiment/6826/522931/start?participant=M058012&batch_id=TYKHTP-01,2462.431,2179182,36.3197,28,test,FKL,B start,FKL,BPL end,.png,800,;0,6000;,0 -300; 0 0; 0 -300; 0 0,comment,,,What do you think is the single best explanation for the person's chosen path?,below,3,3,t110011,0 -300;0 0;0 -300;0 0,799,48,16.65,5997,360,16.65,1507207,They were intentionally wasting time.,159812,
522931_231101_125359_M058012.csv,3,Chrome,118.0.0.0,1280,720,Windows,en-US,2023-11-01_12:17:41,2023-11-01_12:17:41,2023-10-31_10:09:10,M058012,TYKHTP-01,https://www.testable.org/experiment/6826/522931/start?participant=M058012&batch_id=TYKHTP-01,2462.431,2179182,36.3197,30,test,ADL,B start,ADL,BPS end,.png,800,;0,6000;,0 -300; 0 0; 0 -300; 0 0,comment,,,What do you think is the single best explanation for the person's chosen path?,below,3,3,t000010,0 -300;0 0;0 -300;0 0,800,48,16.65,5997,360,16.65,1624182,Pizza didn't appeal to them so they looked for alternatives.,110182,
522931_231101_125359_M058012.csv,3,Chrome,118.0.0.0,1280,720,Windows,en-US,2023-11-01_12:17:41,2023-11-01_12:17:41,2023-10-31_10:09:10,M058012,TYKHTP-01,https://www.testable.org/experiment/6826/522931/start?participant=M058012&batch_id=TYKHTP-01,2462.431,2179182,36.3197,29,test,ADS,A start,ADS,APL end,.png,800,;0,6000;,0 -300; 0 0; 0 -300; 0 0,comment,,,What do you think is the single best explanation for the person's chosen path?,below,3,3,t001111,0 -300;0 0;0 -300;0 0,800,48,16.65,5997,360,16.65,1704205,They looked for alternatives before choosing.,73221,
522931_231101_125359_M058012.csv,3,Chrome,118.0.0.0,1280,720,Windows,en-US,2023-11-01_12:17:41,2023-11-01_12:17:41,2023-10-31_10:09:10,M058012,TYKHTP-01,https://www.testable.org/experiment/6826/522931/start?participant=M058012&batch_id=TYKHTP-01,2462.431,2179182,36.3197,32,test,AKL,B start,AKL,BNL end,.png,800,;0,6000;,0 -300; 0 0; 0 -300; 0 0,comment,,,What do you think is the single best explanation for the person's chosen path?,below,3,3,t010001,0 -300;0 0;0 -300;0 0,799,48,16.65,5997,360,16.66,1801836,They didn't want to go back the same way after trying the hot dog vendor but seeing that they were no longer selling hot dogs.,90837,
522931_231101_125359_M058012.csv,3,Chrome,118.0.0.0,1280,720,Windows,en-US,2023-11-01_12:17:41,2023-11-01_12:17:41,2023-10-31_10:09:10,M058012,TYKHTP-01,https://www.testable.org/experiment/6826/522931/start?participant=M058012&batch_id=TYKHTP-01,2462.431,2179182,36.3197,27,test,FKS,A start,FKS,APS end,.png,800,;0,6000;,0 -300; 0 0; 0 -300; 0 0,comment,,,What do you think is the single best explanation for the person's chosen path?,below,3,3,t111110,0 -300;0 0;0 -300;0 0,799,48,16.65,5997,360,16.66,1823164,They wanted hot dogs.,14537,
522931_231101_125359_M058012.csv,3,Chrome,118.0.0.0,1280,720,Windows,en-US,2023-11-01_12:17:41,2023-11-01_12:17:41,2023-10-31_10:09:10,M058012,TYKHTP-01,https://www.testable.org/experiment/6826/522931/start?participant=M058012&batch_id=TYKHTP-01,2462.431,2179182,36.3197,31,test,AKS,B start,AKS,BNS end,.png,800,;0,6000;,0 -300; 0 0; 0 -300; 0 0,comment,,,What do you think is the single best explanation for the person's chosen path?,below,3,3,t011000,0 -300;0 0;0 -300;0 0,800,48,16.65,5997,355,16.89,1878908,They went to the most convenient vendor.,48949,
522931_231101_125359_M058012.csv,3,Chrome,118.0.0.0,1280,720,Windows,en-US,2023-11-01_12:17:41,2023-11-01_12:17:41,2023-10-31_10:09:10,M058012,TYKHTP-01,https://www.testable.org/experiment/6826/522931/start?participant=M058012&batch_id=TYKHTP-01,2462.431,2179182,36.3197,74,form,,,,,,,,,,dropdown,Male;Female;Prefer not say,To which gender do you most identify?,,,3,,,,800,,,,,,2179182,Male,283249,1
522931_231101_125359_M058012.csv,3,Chrome,118.0.0.0,1280,720,Windows,en-US,2023-11-01_12:17:41,2023-11-01_12:17:41,2023-10-31_10:09:10,M058012,TYKHTP-01,https://www.testable.org/experiment/6826/522931/start?participant=M058012&batch_id=TYKHTP-01,2462.431,2179182,36.3197,75,form,,,,,,,,,,box,,Please state your age in the text box below.,,,3,,,,800,,,,,,2179182,34,283249,NA
522931_231101_125359_M058012.csv,3,Chrome,118.0.0.0,1280,720,Windows,en-US,2023-11-01_12:17:41,2023-11-01_12:17:41,2023-10-31_10:09:10,M058012,TYKHTP-01,https://www.testable.org/experiment/6826/522931/start?participant=M058012&batch_id=TYKHTP-01,2462.431,2179182,36.3197,76,form,,,,,,,,,,comment,,Do you have any comments or feedback regarding the experiment?,,,3,,,,800,,,,,,2179182,"I started the experiment about 20 minutes after accepting it, so I might seem like I've taken much longer to complete it than I actually took.\n\nI don't know if I got confused by the food icons on the map. I interpreted them not as fixed shops, but as mobile vendors, which was why I thought they run out of food more easily and have fewer operating hours in that postition.",283249,NA
522931_231102_214518_M064601.csv,2,Chrome,118.0.0.0,1368,912,Windows,en-GB,2023-11-02_21:38:35,2023-11-02_21:38:35,2023-10-31_10:09:10,M064601,TYTHDF-01,https://www.testable.org/experiment/6826/522931/start?participant=M064601&batch_id=TYTHDF-01,417.921,406089,6.7681,20,test,FKL,A start,FKL,ANS end,.png,800,;0,6000;,0 -300; 0 0; 0 -300; 0 0,comment,,,What do you think is the single best explanation for the person's chosen path?,below,2,2,t110100,0 -300;0 0;0 -300;0 0,801,48,16.68,6004,360,16.68,178614,Parker wanted a change in food choices.,38429,
522931_231102_214518_M064601.csv,2,Chrome,118.0.0.0,1368,912,Windows,en-GB,2023-11-02_21:38:35,2023-11-02_21:38:35,2023-10-31_10:09:10,M064601,TYTHDF-01,https://www.testable.org/experiment/6826/522931/start?participant=M064601&batch_id=TYTHDF-01,417.921,406089,6.7681,17,test,FDS,A start,FDS,APS end,.png,800,;0,6000;,0 -300; 0 0; 0 -300; 0 0,comment,,,What do you think is the single best explanation for the person's chosen path?,below,2,2,t101110,0 -300;0 0;0 -300;0 0,801,44,18.19,6004,353,17.01,199492,Jesse loves hot dogs.,14085,
522931_231102_214518_M064601.csv,2,Chrome,118.0.0.0,1368,912,Windows,en-GB,2023-11-02_21:38:35,2023-11-02_21:38:35,2023-10-31_10:09:10,M064601,TYTHDF-01,https://www.testable.org/experiment/6826/522931/start?participant=M064601&batch_id=TYTHDF-01,417.921,406089,6.7681,23,test,AKS,B start,AKS,BNL end,.png,800,;0,6000;,0 -300; 0 0; 0 -300; 0 0,comment,,,What do you think is the single best explanation for the person's chosen path?,below,2,2,t011001,0 -300;0 0;0 -300;0 0,801,48,16.68,6004,360,16.68,230887,Drew is sporty and wants more exercise.,24586,
522931_231102_214518_M064601.csv,2,Chrome,118.0.0.0,1368,912,Windows,en-GB,2023-11-02_21:38:35,2023-11-02_21:38:35,2023-10-31_10:09:10,M064601,TYTHDF-01,https://www.testable.org/experiment/6826/522931/start?participant=M064601&batch_id=TYTHDF-01,417.921,406089,6.7681,21,test,ADS,B start,ADS,BNS end,.png,800,;0,6000;,0 -300; 0 0; 0 -300; 0 0,comment,,,What do you think is the single best explanation for the person's chosen path?,below,2,2,t001000,0 -300;0 0;0 -300;0 0,801,46,17.4,6004,360,16.68,259800,Brooklyn was hungry and wanted pizza.,22111,
522931_231102_214518_M064601.csv,2,Chrome,118.0.0.0,1368,912,Windows,en-GB,2023-11-02_21:38:35,2023-11-02_21:38:35,2023-10-31_10:09:10,M064601,TYTHDF-01,https://www.testable.org/experiment/6826/522931/start?participant=M064601&batch_id=TYTHDF-01,417.921,406089,6.7681,19,test,FKS,A start,FKS,APL end,.png,800,;0,6000;,0 -300; 0 0; 0 -300; 0 0,comment,,,What do you think is the single best explanation for the person's chosen path?,below,2,2,t111111,0 -300;0 0;0 -300;0 0,801,48,16.68,6004,360,16.68,283618,Taylor is sporty and wants more exercise.,17012,
522931_231102_214518_M064601.csv,2,Chrome,118.0.0.0,1368,912,Windows,en-GB,2023-11-02_21:38:35,2023-11-02_21:38:35,2023-10-31_10:09:10,M064601,TYTHDF-01,https://www.testable.org/experiment/6826/522931/start?participant=M064601&batch_id=TYTHDF-01,417.921,406089,6.7681,18,test,FDL,A start,FDL,ANL end,.png,800,;0,6000;,0 -300; 0 0; 0 -300; 0 0,comment,,,What do you think is the single best explanation for the person's chosen path?,below,2,2,t100101,0 -300;0 0;0 -300;0 0,801,48,16.68,6004,360,16.68,334803,Harper does not know the area well and got lost.,44378,
522931_231102_214518_M064601.csv,2,Chrome,118.0.0.0,1368,912,Windows,en-GB,2023-11-02_21:38:35,2023-11-02_21:38:35,2023-10-31_10:09:10,M064601,TYTHDF-01,https://www.testable.org/experiment/6826/522931/start?participant=M064601&batch_id=TYTHDF-01,417.921,406089,6.7681,24,test,AKL,B start,AKL,BPS end,.png,800,;0,6000;,0 -300; 0 0; 0 -300; 0 0,comment,,,What do you think is the single best explanation for the person's chosen path?,below,2,2,t010010,0 -300;0 0;0 -300;0 0,801,48,16.68,6004,360,16.68,360020,Charlie knows the area well and wanted hot dogs.,18413,
522931_231102_214518_M064601.csv,2,Chrome,118.0.0.0,1368,912,Windows,en-GB,2023-11-02_21:38:35,2023-11-02_21:38:35,2023-10-31_10:09:10,M064601,TYTHDF-01,https://www.testable.org/experiment/6826/522931/start?participant=M064601&batch_id=TYTHDF-01,417.921,406089,6.7681,22,test,ADL,B start,ADL,BPL end,.png,800,;0,6000;,0 -300; 0 0; 0 -300; 0 0,comment,,,What do you think is the single best explanation for the person's chosen path?,below,2,2,t000011,0 -300;0 0;0 -300;0 0,801,44,18.19,6004,360,16.68,386756,Adrian does not know the area well and got lost.,19946,
522931_231102_214518_M064601.csv,2,Chrome,118.0.0.0,1368,912,Windows,en-GB,2023-11-02_21:38:35,2023-11-02_21:38:35,2023-10-31_10:09:10,M064601,TYTHDF-01,https://www.testable.org/experiment/6826/522931/start?participant=M064601&batch_id=TYTHDF-01,417.921,406089,6.7681,74,form,,,,,,,,,,dropdown,Male;Female;Prefer not say,To which gender do you most identify?,,,2,,,,801,,,,,,406089,Male,11832,1
522931_231102_214518_M064601.csv,2,Chrome,118.0.0.0,1368,912,Windows,en-GB,2023-11-02_21:38:35,2023-11-02_21:38:35,2023-10-31_10:09:10,M064601,TYTHDF-01,https://www.testable.org/experiment/6826/522931/start?participant=M064601&batch_id=TYTHDF-01,417.921,406089,6.7681,75,form,,,,,,,,,,box,,Please state your age in the text box below.,,,2,,,,801,,,,,,406089,40,11832,NA
522931_231102_214518_M064601.csv,2,Chrome,118.0.0.0,1368,912,Windows,en-GB,2023-11-02_21:38:35,2023-11-02_21:38:35,2023-10-31_10:09:10,M064601,TYTHDF-01,https://www.testable.org/experiment/6826/522931/start?participant=M064601&batch_id=TYTHDF-01,417.921,406089,6.7681,76,form,,,,,,,,,,comment,,Do you have any comments or feedback regarding the experiment?,,,2,,,,801,,,,,,406089,None.,11832,NA
522931_231102_214600_M548118.csv,5,Chrome,118.0.0.0,1280,800,Windows,en-GB,2023-11-02_21:39:12,2023-11-02_21:39:12,2023-10-31_10:09:10,M548118,TYTHDF-01,https://www.testable.org/experiment/6826/522931/start?participant=M548118&batch_id=TYTHDF-01,416.379,408497,6.8082,42,test,FDL,B start,FDL,BPS end,.png,800,;0,6000;,0 -300; 0 0; 0 -300; 0 0,comment,,,What do you think is the single best explanation for the person's chosen path?,below,5,5,t100010,0 -300;0 0;0 -300;0 0,799,48,16.64,6000,360,16.67,146186,Harper wanted his favourite food so went further afield as that is what he wanted most.,36874,
522931_231102_214600_M548118.csv,5,Chrome,118.0.0.0,1280,800,Windows,en-GB,2023-11-02_21:39:12,2023-11-02_21:39:12,2023-10-31_10:09:10,M548118,TYTHDF-01,https://www.testable.org/experiment/6826/522931/start?participant=M548118&batch_id=TYTHDF-01,416.379,408497,6.8082,44,test,FKL,B start,FKL,BNL end,.png,800,;0,6000;,0 -300; 0 0; 0 -300; 0 0,comment,,,What do you think is the single best explanation for the person's chosen path?,below,5,5,t110001,0 -300;0 0;0 -300;0 0,800,48,16.67,6000,360,16.67,202392,They wanted to go for a walk before eating but were too lazy at the end of the walk to go that bit further to go back to the hot dog stand,49414,
522931_231102_214600_M548118.csv,5,Chrome,118.0.0.0,1280,800,Windows,en-GB,2023-11-02_21:39:12,2023-11-02_21:39:12,2023-10-31_10:09:10,M548118,TYTHDF-01,https://www.testable.org/experiment/6826/522931/start?participant=M548118&batch_id=TYTHDF-01,416.379,408497,6.8082,45,test,ADS,A start,ADS,ANL end,.png,800,;0,6000;,0 -300; 0 0; 0 -300; 0 0,comment,,,What do you think is the single best explanation for the person's chosen path?,below,5,5,t001101,0 -300;0 0;0 -300;0 0,800,48,16.67,5999,360,16.67,233816,His favourite food is pizza and he stopped when he found it,24627,
522931_231102_214600_M548118.csv,5,Chrome,118.0.0.0,1280,800,Windows,en-GB,2023-11-02_21:39:12,2023-11-02_21:39:12,2023-10-31_10:09:10,M548118,TYTHDF-01,https://www.testable.org/experiment/6826/522931/start?participant=M548118&batch_id=TYTHDF-01,416.379,408497,6.8082,47,test,AKS,A start,AKS,APS end,.png,800,;0,6000;,0 -300; 0 0; 0 -300; 0 0,comment,,,What do you think is the single best explanation for the person's chosen path?,below,5,5,t011110,0 -300;0 0;0 -300;0 0,800,48,16.66,6000,360,16.67,272823,He had already done his exercise and merely wanted to get some tea so knew where to go to get the food he wanted quickest,32215,
522931_231102_214600_M548118.csv,5,Chrome,118.0.0.0,1280,800,Windows,en-GB,2023-11-02_21:39:12,2023-11-02_21:39:12,2023-10-31_10:09:10,M548118,TYTHDF-01,https://www.testable.org/experiment/6826/522931/start?participant=M548118&batch_id=TYTHDF-01,416.379,408497,6.8082,48,test,AKL,A start,AKL,APL end,.png,800,;0,6000;,0 -300; 0 0; 0 -300; 0 0,comment,,,What do you think is the single best explanation for the person's chosen path?,below,5,5,t010111,0 -300;0 0;0 -300;0 0,800,48,16.66,6000,360,16.67,303820,Charlie changed his mind after seeing the pizza place and decided he would rather have a hot dog,24194,
522931_231102_214600_M548118.csv,5,Chrome,118.0.0.0,1280,800,Windows,en-GB,2023-11-02_21:39:12,2023-11-02_21:39:12,2023-10-31_10:09:10,M548118,TYTHDF-01,https://www.testable.org/experiment/6826/522931/start?participant=M548118&batch_id=TYTHDF-01,416.379,408497,6.8082,43,test,FKS,A start,FKS,ANS end,.png,800,;0,6000;,0 -300; 0 0; 0 -300; 0 0,comment,,,What do you think is the single best explanation for the person's chosen path?,below,5,5,t111100,0 -300;0 0;0 -300;0 0,800,48,16.66,6000,360,16.67,326496,Taylor didn't fancy hot dogs tonight,15872,
522931_231102_214600_M548118.csv,5,Chrome,118.0.0.0,1280,800,Windows,en-GB,2023-11-02_21:39:12,2023-11-02_21:39:12,2023-10-31_10:09:10,M548118,TYTHDF-01,https://www.testable.org/experiment/6826/522931/start?participant=M548118&batch_id=TYTHDF-01,416.379,408497,6.8082,46,test,ADL,B start,ADL,BNS end,.png,800,;0,6000;,0 -300; 0 0; 0 -300; 0 0,comment,,,What do you think is the single best explanation for the person's chosen path?,below,5,5,t000000,0 -300;0 0;0 -300;0 0,800,48,16.66,6000,360,16.67,344788,Adrian just ate the first thing he found,11497,
522931_231102_214600_M548118.csv,5,Chrome,118.0.0.0,1280,800,Windows,en-GB,2023-11-02_21:39:12,2023-11-02_21:39:12,2023-10-31_10:09:10,M548118,TYTHDF-01,https://www.testable.org/experiment/6826/522931/start?participant=M548118&batch_id=TYTHDF-01,416.379,408497,6.8082,41,test,FDS,B start,FDS,BPL end,.png,800,;0,6000;,0 -300; 0 0; 0 -300; 0 0,comment,,,What do you think is the single best explanation for the person's chosen path?,below,5,5,t101011,0 -300;0 0;0 -300;0 0,800,48,16.66,5999,360,16.66,392946,Jesse thought they would go for a walk even after seeing the pizza place to see if there were any other options to eat. They didn't mind walking further to see what else there was.,41357,
522931_231102_214600_M548118.csv,5,Chrome,118.0.0.0,1280,800,Windows,en-GB,2023-11-02_21:39:12,2023-11-02_21:39:12,2023-10-31_10:09:10,M548118,TYTHDF-01,https://www.testable.org/experiment/6826/522931/start?participant=M548118&batch_id=TYTHDF-01,416.379,408497,6.8082,74,form,,,,,,,,,,dropdown,Male;Female;Prefer not say,To which gender do you most identify?,,,5,,,,800,,,,,,408497,Female,7882,2
522931_231102_214600_M548118.csv,5,Chrome,118.0.0.0,1280,800,Windows,en-GB,2023-11-02_21:39:12,2023-11-02_21:39:12,2023-10-31_10:09:10,M548118,TYTHDF-01,https://www.testable.org/experiment/6826/522931/start?participant=M548118&batch_id=TYTHDF-01,416.379,408497,6.8082,75,form,,,,,,,,,,box,,Please state your age in the text box below.,,,5,,,,800,,,,,,408497,49,7882,NA
522931_231102_214600_M548118.csv,5,Chrome,118.0.0.0,1280,800,Windows,en-GB,2023-11-02_21:39:12,2023-11-02_21:39:12,2023-10-31_10:09:10,M548118,TYTHDF-01,https://www.testable.org/experiment/6826/522931/start?participant=M548118&batch_id=TYTHDF-01,416.379,408497,6.8082,76,form,,,,,,,,,,comment,,Do you have any comments or feedback regarding the experiment?,,,5,,,,800,,,,,,408497,NA,7882,NA
522931_231102_214641_M001177.csv,6,Chrome,118.0.0.0,1920,1080,UNIX,en-GB,2023-11-02_21:38:44,2023-11-02_21:38:44,2023-10-31_10:09:10,M001177,TYTHDF-01,https://www.testable.org/experiment/6826/522931/start?participant=M001177&batch_id=TYTHDF-01,486.685,477972,7.9662,51,test,FKS,B start,FKS,BPL end,.png,800,;0,6000;,0 -300; 0 0; 0 -300; 0 0,comment,,,What do you think is the single best explanation for the person's chosen path?,below,6,6,t111011,0 -300;0 0;0 -300;0 0,800,48,16.67,6002,360,16.67,169585,Taylor wanted to take the long route to the hot dog stall because they are sporty and fancied a run.,50964,
522931_231102_214641_M001177.csv,6,Chrome,118.0.0.0,1920,1080,UNIX,en-GB,2023-11-02_21:38:44,2023-11-02_21:38:44,2023-10-31_10:09:10,M001177,TYTHDF-01,https://www.testable.org/experiment/6826/522931/start?participant=M001177&batch_id=TYTHDF-01,486.685,477972,7.9662,54,test,ADL,A start,ADL,APL end,.png,800,;0,6000;,0 -300; 0 0; 0 -300; 0 0,comment,,,What do you think is the single best explanation for the person's chosen path?,below,6,6,t000111,0 -300;0 0;0 -300;0 0,800,47,17.02,6002,360,16.67,235980,"Adrian wanted to see if there were other food stalls, but doesn't like pizza.",59603,
522931_231102_214641_M001177.csv,6,Chrome,118.0.0.0,1920,1080,UNIX,en-GB,2023-11-02_21:38:44,2023-11-02_21:38:44,2023-10-31_10:09:10,M001177,TYTHDF-01,https://www.testable.org/experiment/6826/522931/start?participant=M001177&batch_id=TYTHDF-01,486.685,477972,7.9662,55,test,AKS,A start,AKS,ANL end,.png,800,;0,6000;,0 -300; 0 0; 0 -300; 0 0,comment,,,What do you think is the single best explanation for the person's chosen path?,below,6,6,t011101,0 -300;0 0;0 -300;0 0,800,47,17.02,6002,360,16.67,267598,Drew fancied a longer run to the food truck as he is sporty.,24827,
522931_231102_214641_M001177.csv,6,Chrome,118.0.0.0,1920,1080,UNIX,en-GB,2023-11-02_21:38:44,2023-11-02_21:38:44,2023-10-31_10:09:10,M001177,TYTHDF-01,https://www.testable.org/experiment/6826/522931/start?participant=M001177&batch_id=TYTHDF-01,486.685,477972,7.9662,50,test,FDL,B start,FDL,BNL end,.png,800,;0,6000;,0 -300; 0 0; 0 -300; 0 0,comment,,,What do you think is the single best explanation for the person's chosen path?,below,6,6,t100001,0 -300;0 0;0 -300;0 0,800,46,17.39,6002,360,16.67,319436,Harper fancied a change from hot dogs.,45057,
522931_231102_214641_M001177.csv,6,Chrome,118.0.0.0,1920,1080,UNIX,en-GB,2023-11-02_21:38:44,2023-11-02_21:38:44,2023-10-31_10:09:10,M001177,TYTHDF-01,https://www.testable.org/experiment/6826/522931/start?participant=M001177&batch_id=TYTHDF-01,486.685,477972,7.9662,52,test,FKL,B start,FKL,BNS end,.png,800,;0,6000;,0 -300; 0 0; 0 -300; 0 0,comment,,,What do you think is the single best explanation for the person's chosen path?,below,6,6,t110000,0 -300;0 0;0 -300;0 0,800,47,17.02,6002,360,16.67,349461,Parker went for the closest food stall because he is lazy.,23226,
522931_231102_214641_M001177.csv,6,Chrome,118.0.0.0,1920,1080,UNIX,en-GB,2023-11-02_21:38:44,2023-11-02_21:38:44,2023-10-31_10:09:10,M001177,TYTHDF-01,https://www.testable.org/experiment/6826/522931/start?participant=M001177&batch_id=TYTHDF-01,486.685,477972,7.9662,49,test,FDS,B start,FDS,BPS end,.png,800,;0,6000;,0 -300; 0 0; 0 -300; 0 0,comment,,,What do you think is the single best explanation for the person's chosen path?,below,6,6,t101010,0 -300;0 0;0 -300;0 0,800,46,17.39,6002,360,16.67,396465,Jesse set out looking for the hot dog stall and got lucky by taking the shortest route.,40217,
522931_231102_214641_M001177.csv,6,Chrome,118.0.0.0,1920,1080,UNIX,en-GB,2023-11-02_21:38:44,2023-11-02_21:38:44,2023-10-31_10:09:10,M001177,TYTHDF-01,https://www.testable.org/experiment/6826/522931/start?participant=M001177&batch_id=TYTHDF-01,486.685,477972,7.9662,53,test,ADS,A start,ADS,ANS end,.png,800,;0,6000;,0 -300; 0 0; 0 -300; 0 0,comment,,,What do you think is the single best explanation for the person's chosen path?,below,6,6,t001100,0 -300;0 0;0 -300;0 0,800,47,17.02,6002,360,16.67,425528,Brooklyn set out to explore and found the pizza stall.,22264,
522931_231102_214641_M001177.csv,6,Chrome,118.0.0.0,1920,1080,UNIX,en-GB,2023-11-02_21:38:44,2023-11-02_21:38:44,2023-10-31_10:09:10,M001177,TYTHDF-01,https://www.testable.org/experiment/6826/522931/start?participant=M001177&batch_id=TYTHDF-01,486.685,477972,7.9662,56,test,AKL,A start,AKL,APS end,.png,800,;0,6000;,0 -300; 0 0; 0 -300; 0 0,comment,,,What do you think is the single best explanation for the person's chosen path?,below,6,6,t010110,0 -300;0 0;0 -300;0 0,800,48,16.67,6002,360,16.67,449438,"Charlie went to the nearest food stall because he is lazy,",17113,
522931_231102_214641_M001177.csv,6,Chrome,118.0.0.0,1920,1080,UNIX,en-GB,2023-11-02_21:38:44,2023-11-02_21:38:44,2023-10-31_10:09:10,M001177,TYTHDF-01,https://www.testable.org/experiment/6826/522931/start?participant=M001177&batch_id=TYTHDF-01,486.685,477972,7.9662,74,form,,,,,,,,,,dropdown,Male;Female;Prefer not say,To which gender do you most identify?,,,6,,,,800,,,,,,477972,Male,8713,1
522931_231102_214641_M001177.csv,6,Chrome,118.0.0.0,1920,1080,UNIX,en-GB,2023-11-02_21:38:44,2023-11-02_21:38:44,2023-10-31_10:09:10,M001177,TYTHDF-01,https://www.testable.org/experiment/6826/522931/start?participant=M001177&batch_id=TYTHDF-01,486.685,477972,7.9662,75,form,,,,,,,,,,box,,Please state your age in the text box below.,,,6,,,,800,,,,,,477972,51,8713,NA
522931_231102_214641_M001177.csv,6,Chrome,118.0.0.0,1920,1080,UNIX,en-GB,2023-11-02_21:38:44,2023-11-02_21:38:44,2023-10-31_10:09:10,M001177,TYTHDF-01,https://www.testable.org/experiment/6826/522931/start?participant=M001177&batch_id=TYTHDF-01,486.685,477972,7.9662,76,form,,,,,,,,,,comment,,Do you have any comments or feedback regarding the experiment?,,,6,,,,800,,,,,,477972,NA,8713,NA
522931_231102_214757_M740010.csv,2,Chrome,118.0.0.0,1280,720,Windows,en-GB,2023-11-02_21:41:27,2023-11-02_21:41:27,2023-10-31_10:09:10,M740010,TYTHDF-01,https://www.testable.org/experiment/6826/522931/start?participant=M740010&batch_id=TYTHDF-01,399.452,390909,6.5151,19,test,FKS,A start,FKS,APL end,.png,800,;0,6000;,0 -300; 0 0; 0 -300; 0 0,comment,,,What do you think is the single best explanation for the person's chosen path?,below,2,2,t111111,0 -300;0 0;0 -300;0 0,800,46,17.39,6000,360,16.67,115465,that he doesnt like pizza at all,36975,
522931_231102_214757_M740010.csv,2,Chrome,118.0.0.0,1280,720,Windows,en-GB,2023-11-02_21:41:27,2023-11-02_21:41:27,2023-10-31_10:09:10,M740010,TYTHDF-01,https://www.testable.org/experiment/6826/522931/start?participant=M740010&batch_id=TYTHDF-01,399.452,390909,6.5151,22,test,ADL,B start,ADL,BPL end,.png,800,;0,6000;,0 -300; 0 0; 0 -300; 0 0,comment,,,What do you think is the single best explanation for the person's chosen path?,below,2,2,t000011,0 -300;0 0;0 -300;0 0,801,48,16.69,5999,359,16.71,158715,"that he was really hungry by the time he got to the hot dog stand,",36450,
522931_231102_214757_M740010.csv,2,Chrome,118.0.0.0,1280,720,Windows,en-GB,2023-11-02_21:41:27,2023-11-02_21:41:27,2023-10-31_10:09:10,M740010,TYTHDF-01,https://www.testable.org/experiment/6826/522931/start?participant=M740010&batch_id=TYTHDF-01,399.452,390909,6.5151,21,test,ADS,B start,ADS,BNS end,.png,800,;0,6000;,0 -300; 0 0; 0 -300; 0 0,comment,,,What do you think is the single best explanation for the person's chosen path?,below,2,2,t001000,0 -300;0 0;0 -300;0 0,800,48,16.67,5999,360,16.67,199028,that he sight of the pizza stand piqued his appetite,33519,
522931_231102_214757_M740010.csv,2,Chrome,118.0.0.0,1280,720,Windows,en-GB,2023-11-02_21:41:27,2023-11-02_21:41:27,2023-10-31_10:09:10,M740010,TYTHDF-01,https://www.testable.org/experiment/6826/522931/start?participant=M740010&batch_id=TYTHDF-01,399.452,390909,6.5151,20,test,FKL,A start,FKL,ANS end,.png,800,;0,6000;,0 -300; 0 0; 0 -300; 0 0,comment,,,What do you think is the single best explanation for the person's chosen path?,below,2,2,t110100,0 -300;0 0;0 -300;0 0,800,48,16.66,6000,360,16.67,226784,that he quite likes pizza aswell,20965,
522931_231102_214757_M740010.csv,2,Chrome,118.0.0.0,1280,720,Windows,en-GB,2023-11-02_21:41:27,2023-11-02_21:41:27,2023-10-31_10:09:10,M740010,TYTHDF-01,https://www.testable.org/experiment/6826/522931/start?participant=M740010&batch_id=TYTHDF-01,399.452,390909,6.5151,24,test,AKL,B start,AKL,BPS end,.png,800,;0,6000;,0 -300; 0 0; 0 -300; 0 0,comment,,,What do you think is the single best explanation for the person's chosen path?,below,2,2,t010010,0 -300;0 0;0 -300;0 0,800,48,16.67,6001,360,16.67,267516,that he was hungry at the time and doesnt mind at the least hotdogs,33923,
522931_231102_214757_M740010.csv,2,Chrome,118.0.0.0,1280,720,Windows,en-GB,2023-11-02_21:41:27,2023-11-02_21:41:27,2023-10-31_10:09:10,M740010,TYTHDF-01,https://www.testable.org/experiment/6826/522931/start?participant=M740010&batch_id=TYTHDF-01,399.452,390909,6.5151,17,test,FDS,A start,FDS,APS end,.png,800,;0,6000;,0 -300; 0 0; 0 -300; 0 0,comment,,,What do you think is the single best explanation for the person's chosen path?,below,2,2,t101110,0 -300;0 0;0 -300;0 0,799,48,16.66,6001,360,16.67,302134,that she spottted the hotdog stand,27808,
522931_231102_214757_M740010.csv,2,Chrome,118.0.0.0,1280,720,Windows,en-GB,2023-11-02_21:41:27,2023-11-02_21:41:27,2023-10-31_10:09:10,M740010,TYTHDF-01,https://www.testable.org/experiment/6826/522931/start?participant=M740010&batch_id=TYTHDF-01,399.452,390909,6.5151,18,test,FDL,A start,FDL,ANL end,.png,800,;0,6000;,0 -300; 0 0; 0 -300; 0 0,comment,,,What do you think is the single best explanation for the person's chosen path?,below,2,2,t100101,0 -300;0 0;0 -300;0 0,800,48,16.67,6000,360,16.67,341320,that he wasnt hungry when he passed the hot dog stand,32376,
522931_231102_214757_M740010.csv,2,Chrome,118.0.0.0,1280,720,Windows,en-GB,2023-11-02_21:41:27,2023-11-02_21:41:27,2023-10-31_10:09:10,M740010,TYTHDF-01,https://www.testable.org/experiment/6826/522931/start?participant=M740010&batch_id=TYTHDF-01,399.452,390909,6.5151,23,test,AKS,B start,AKS,BNL end,.png,800,;0,6000;,0 -300; 0 0; 0 -300; 0 0,comment,,,What do you think is the single best explanation for the person's chosen path?,below,2,2,t011001,0 -300;0 0;0 -300;0 0,800,48,16.66,6000,350,17.14,374993,that he wanted to explore before eating,26868,
522931_231102_214757_M740010.csv,2,Chrome,118.0.0.0,1280,720,Windows,en-GB,2023-11-02_21:41:27,2023-11-02_21:41:27,2023-10-31_10:09:10,M740010,TYTHDF-01,https://www.testable.org/experiment/6826/522931/start?participant=M740010&batch_id=TYTHDF-01,399.452,390909,6.5151,74,form,,,,,,,,,,dropdown,Male;Female;Prefer not say,To which gender do you most identify?,,,2,,,,800,,,,,,390909,Male,8543,1
522931_231102_214757_M740010.csv,2,Chrome,118.0.0.0,1280,720,Windows,en-GB,2023-11-02_21:41:27,2023-11-02_21:41:27,2023-10-31_10:09:10,M740010,TYTHDF-01,https://www.testable.org/experiment/6826/522931/start?participant=M740010&batch_id=TYTHDF-01,399.452,390909,6.5151,75,form,,,,,,,,,,box,,Please state your age in the text box below.,,,2,,,,800,,,,,,390909,38,8543,NA
522931_231102_214757_M740010.csv,2,Chrome,118.0.0.0,1280,720,Windows,en-GB,2023-11-02_21:41:27,2023-11-02_21:41:27,2023-10-31_10:09:10,M740010,TYTHDF-01,https://www.testable.org/experiment/6826/522931/start?participant=M740010&batch_id=TYTHDF-01,399.452,390909,6.5151,76,form,,,,,,,,,,comment,,Do you have any comments or feedback regarding the experiment?,,,2,,,,800,,,,,,390909,no,8543,NA
522931_231102_214758_M043484.csv,4,Chrome,118.0.0.0,1710,1107,MacOS,en-GB,2023-11-02_21:38:02,2023-11-02_21:38:02,2023-10-31_10:09:10,M043484,TYTHDF-01,https://www.testable.org/experiment/6826/522931/start?participant=M043484&batch_id=TYTHDF-01,602.841,596617,9.9436,39,test,AKS,A start,AKS,APL end,.png,800,;0,6000;,0 -300; 0 0; 0 -300; 0 0,comment,,,What do you think is the single best explanation for the person's chosen path?,below,4,4,t011111,0 -300;0 0;0 -300;0 0,800,48,16.67,6000,360,16.67,253694,Drew wanted a hot dog and chose to take the long route for exercise,25942,
522931_231102_214758_M043484.csv,4,Chrome,118.0.0.0,1710,1107,MacOS,en-GB,2023-11-02_21:38:02,2023-11-02_21:38:02,2023-10-31_10:09:10,M043484,TYTHDF-01,https://www.testable.org/experiment/6826/522931/start?participant=M043484&batch_id=TYTHDF-01,602.841,596617,9.9436,33,test,FDS,A start,FDS,ANS end,.png,800,;0,6000;,0 -300; 0 0; 0 -300; 0 0,comment,,,What do you think is the single best explanation for the person's chosen path?,below,4,4,t101100,0 -300;0 0;0 -300;0 0,800,48,16.67,6000,360,16.67,318815,"Jesse didn't know how far the hot dog stand was, so decided to choose pizza when they found it.",58317,
522931_231102_214758_M043484.csv,4,Chrome,118.0.0.0,1710,1107,MacOS,en-GB,2023-11-02_21:38:02,2023-11-02_21:38:02,2023-10-31_10:09:10,M043484,TYTHDF-01,https://www.testable.org/experiment/6826/522931/start?participant=M043484&batch_id=TYTHDF-01,602.841,596617,9.9436,37,test,ADS,A start,ADS,APS end,.png,800,;0,6000;,0 -300; 0 0; 0 -300; 0 0,comment,,,What do you think is the single best explanation for the person's chosen path?,below,4,4,t001110,0 -300;0 0;0 -300;0 0,800,48,16.67,6000,360,16.67,353747,Brooklyn decided that he wanted hot dogs that day,28135,
522931_231102_214758_M043484.csv,4,Chrome,118.0.0.0,1710,1107,MacOS,en-GB,2023-11-02_21:38:02,2023-11-02_21:38:02,2023-10-31_10:09:10,M043484,TYTHDF-01,https://www.testable.org/experiment/6826/522931/start?participant=M043484&batch_id=TYTHDF-01,602.841,596617,9.9436,36,test,FKL,B start,FKL,BPS end,.png,800,;0,6000;,0 -300; 0 0; 0 -300; 0 0,comment,,,What do you think is the single best explanation for the person's chosen path?,below,4,4,t110010,0 -300;0 0;0 -300;0 0,800,48,16.67,6000,360,16.67,411177,Parker took the quickest route to their favourite food stand,50629,
522931_231102_214758_M043484.csv,4,Chrome,118.0.0.0,1710,1107,MacOS,en-GB,2023-11-02_21:38:02,2023-11-02_21:38:02,2023-10-31_10:09:10,M043484,TYTHDF-01,https://www.testable.org/experiment/6826/522931/start?participant=M043484&batch_id=TYTHDF-01,602.841,596617,9.9436,40,test,AKL,B start,AKL,BNS end,.png,800,;0,6000;,0 -300; 0 0; 0 -300; 0 0,comment,,,What do you think is the single best explanation for the person's chosen path?,below,4,4,t010000,0 -300;0 0;0 -300;0 0,800,48,16.67,6000,360,16.67,450311,Charlie chose the food stand closest to them,32331,
522931_231102_214758_M043484.csv,4,Chrome,118.0.0.0,1710,1107,MacOS,en-GB,2023-11-02_21:38:02,2023-11-02_21:38:02,2023-10-31_10:09:10,M043484,TYTHDF-01,https://www.testable.org/experiment/6826/522931/start?participant=M043484&batch_id=TYTHDF-01,602.841,596617,9.9436,38,test,ADL,B start,ADL,BNL end,.png,800,;0,6000;,0 -300; 0 0; 0 -300; 0 0,comment,,,What do you think is the single best explanation for the person's chosen path?,below,4,4,t000001,0 -300;0 0;0 -300;0 0,800,48,16.67,6000,360,16.67,498020,Adrian really wanted pizza and so continued until he found it.,40903,
522931_231102_214758_M043484.csv,4,Chrome,118.0.0.0,1710,1107,MacOS,en-GB,2023-11-02_21:38:02,2023-11-02_21:38:02,2023-10-31_10:09:10,M043484,TYTHDF-01,https://www.testable.org/experiment/6826/522931/start?participant=M043484&batch_id=TYTHDF-01,602.841,596617,9.9436,34,test,FDL,B start,FDL,BPL end,.png,800,;0,6000;,0 -300; 0 0; 0 -300; 0 0,comment,,,What do you think is the single best explanation for the person's chosen path?,below,4,4,t100011,0 -300;0 0;0 -300;0 0,800,48,16.67,6000,360,16.67,536102,Harper was keen on having hot dogs. He continued to walk until he could find them.,31294,
522931_231102_214758_M043484.csv,4,Chrome,118.0.0.0,1710,1107,MacOS,en-GB,2023-11-02_21:38:02,2023-11-02_21:38:02,2023-10-31_10:09:10,M043484,TYTHDF-01,https://www.testable.org/experiment/6826/522931/start?participant=M043484&batch_id=TYTHDF-01,602.841,596617,9.9436,35,test,FKS,A start,FKS,ANL end,.png,800,;0,6000;,0 -300; 0 0; 0 -300; 0 0,comment,,,What do you think is the single best explanation for the person's chosen path?,below,4,4,t111101,0 -300;0 0;0 -300;0 0,800,48,16.68,6000,360,16.67,582463,Taylor wanted more exercise and decided that he wanted pizza that day.,39566,
522931_231102_214758_M043484.csv,4,Chrome,118.0.0.0,1710,1107,MacOS,en-GB,2023-11-02_21:38:02,2023-11-02_21:38:02,2023-10-31_10:09:10,M043484,TYTHDF-01,https://www.testable.org/experiment/6826/522931/start?participant=M043484&batch_id=TYTHDF-01,602.841,596617,9.9436,74,form,,,,,,,,,,dropdown,Male;Female;Prefer not say,To which gender do you most identify?,,,4,,,,800,,,,,,596617,Male,6224,1
522931_231102_214758_M043484.csv,4,Chrome,118.0.0.0,1710,1107,MacOS,en-GB,2023-11-02_21:38:02,2023-11-02_21:38:02,2023-10-31_10:09:10,M043484,TYTHDF-01,https://www.testable.org/experiment/6826/522931/start?participant=M043484&batch_id=TYTHDF-01,602.841,596617,9.9436,75,form,,,,,,,,,,box,,Please state your age in the text box below.,,,4,,,,800,,,,,,596617,43,6224,NA
522931_231102_214758_M043484.csv,4,Chrome,118.0.0.0,1710,1107,MacOS,en-GB,2023-11-02_21:38:02,2023-11-02_21:38:02,2023-10-31_10:09:10,M043484,TYTHDF-01,https://www.testable.org/experiment/6826/522931/start?participant=M043484&batch_id=TYTHDF-01,602.841,596617,9.9436,76,form,,,,,,,,,,comment,,Do you have any comments or feedback regarding the experiment?,,,4,,,,800,,,,,,596617,NA,6224,NA
522931_231102_214808_M655629.csv,8,Chrome,118.0.0.0,1745,981,UNIX,en-GB,2023-11-02_21:38:50,2023-11-02_21:38:50,2023-10-31_10:09:10,M655629,TYTHDF-01,https://www.testable.org/experiment/6826/522931/start?participant=M655629&batch_id=TYTHDF-01,567.648,559109,9.3184,70,test,ADL,A start,ADL,ANL end,.png,800,;0,6000;,0 -300; 0 0; 0 -300; 0 0,comment,,,What do you think is the single best explanation for the person's chosen path?,below,8,8,t000101,0 -300;0 0;0 -300;0 0,800,48,16.67,5999,360,16.67,236754,There was no thought put into it,81649,
522931_231102_214808_M655629.csv,8,Chrome,118.0.0.0,1745,981,UNIX,en-GB,2023-11-02_21:38:50,2023-11-02_21:38:50,2023-10-31_10:09:10,M655629,TYTHDF-01,https://www.testable.org/experiment/6826/522931/start?participant=M655629&batch_id=TYTHDF-01,567.648,559109,9.3184,66,test,FDL,A start,FDL,APL end,.png,800,;0,6000;,0 -300; 0 0; 0 -300; 0 0,comment,,,What do you think is the single best explanation for the person's chosen path?,below,8,8,t100111,0 -300;0 0;0 -300;0 0,800,48,16.67,5999,360,16.67,267560,stupidity,24004,
522931_231102_214808_M655629.csv,8,Chrome,118.0.0.0,1745,981,UNIX,en-GB,2023-11-02_21:38:50,2023-11-02_21:38:50,2023-10-31_10:09:10,M655629,TYTHDF-01,https://www.testable.org/experiment/6826/522931/start?participant=M655629&batch_id=TYTHDF-01,567.648,559109,9.3184,68,test,FKL,A start,FKL,APS end,.png,800,;0,6000;,0 -300; 0 0; 0 -300; 0 0,comment,,,What do you think is the single best explanation for the person's chosen path?,below,8,8,t110110,0 -300;0 0;0 -300;0 0,800,48,16.66,5999,360,16.66,287028,saw the hotdog van,12675,
522931_231102_214808_M655629.csv,8,Chrome,118.0.0.0,1745,981,UNIX,en-GB,2023-11-02_21:38:50,2023-11-02_21:38:50,2023-10-31_10:09:10,M655629,TYTHDF-01,https://www.testable.org/experiment/6826/522931/start?participant=M655629&batch_id=TYTHDF-01,567.648,559109,9.3184,65,test,FDS,B start,FDS,BNS end,.png,800,;0,6000;,0 -300; 0 0; 0 -300; 0 0,comment,,,What do you think is the single best explanation for the person's chosen path?,below,8,8,t101000,0 -300;0 0;0 -300;0 0,800,48,16.66,5999,360,16.66,326729,"must have been really hungry, went to closest place",32894,
522931_231102_214808_M655629.csv,8,Chrome,118.0.0.0,1745,981,UNIX,en-GB,2023-11-02_21:38:50,2023-11-02_21:38:50,2023-10-31_10:09:10,M655629,TYTHDF-01,https://www.testable.org/experiment/6826/522931/start?participant=M655629&batch_id=TYTHDF-01,567.648,559109,9.3184,67,test,FKS,B start,FKS,BNL end,.png,800,;0,6000;,0 -300; 0 0; 0 -300; 0 0,comment,,,What do you think is the single best explanation for the person's chosen path?,below,8,8,t111001,0 -300;0 0;0 -300;0 0,800,48,16.66,5999,360,16.66,415172,went for a run as is sporty and decided on pizza for a change.,81639,
522931_231102_214808_M655629.csv,8,Chrome,118.0.0.0,1745,981,UNIX,en-GB,2023-11-02_21:38:50,2023-11-02_21:38:50,2023-10-31_10:09:10,M655629,TYTHDF-01,https://www.testable.org/experiment/6826/522931/start?participant=M655629&batch_id=TYTHDF-01,567.648,559109,9.3184,71,test,AKS,B start,AKS,BPL end,.png,800,;0,6000;,0 -300; 0 0; 0 -300; 0 0,comment,,,What do you think is the single best explanation for the person's chosen path?,below,8,8,t011011,0 -300;0 0;0 -300;0 0,800,48,16.66,5999,360,16.66,469151,"is sporty,knows area,took longest route to hotdog stand.",47175,
522931_231102_214808_M655629.csv,8,Chrome,118.0.0.0,1745,981,UNIX,en-GB,2023-11-02_21:38:50,2023-11-02_21:38:50,2023-10-31_10:09:10,M655629,TYTHDF-01,https://www.testable.org/experiment/6826/522931/start?participant=M655629&batch_id=TYTHDF-01,567.648,559109,9.3184,69,test,ADS,B start,ADS,BPS end,.png,800,;0,6000;,0 -300; 0 0; 0 -300; 0 0,comment,,,What do you think is the single best explanation for the person's chosen path?,below,8,8,t001010,0 -300;0 0;0 -300;0 0,800,48,16.66,5999,360,16.66,510429,did not fancy pizza,34494,
522931_231102_214808_M655629.csv,8,Chrome,118.0.0.0,1745,981,UNIX,en-GB,2023-11-02_21:38:50,2023-11-02_21:38:50,2023-10-31_10:09:10,M655629,TYTHDF-01,https://www.testable.org/experiment/6826/522931/start?participant=M655629&batch_id=TYTHDF-01,567.648,559109,9.3184,72,test,AKL,A start,AKL,ANS end,.png,800,;0,6000;,0 -300; 0 0; 0 -300; 0 0,comment,,,What do you think is the single best explanation for the person's chosen path?,below,8,8,t010100,0 -300;0 0;0 -300;0 0,800,48,16.66,5999,360,16.66,544000,wanted pizza and took quickest route as lazy,26780,
522931_231102_214808_M655629.csv,8,Chrome,118.0.0.0,1745,981,UNIX,en-GB,2023-11-02_21:38:50,2023-11-02_21:38:50,2023-10-31_10:09:10,M655629,TYTHDF-01,https://www.testable.org/experiment/6826/522931/start?participant=M655629&batch_id=TYTHDF-01,567.648,559109,9.3184,74,form,,,,,,,,,,dropdown,Male;Female;Prefer not say,To which gender do you most identify?,,,8,,,,800,,,,,,559109,Male,8539,1
522931_231102_214808_M655629.csv,8,Chrome,118.0.0.0,1745,981,UNIX,en-GB,2023-11-02_21:38:50,2023-11-02_21:38:50,2023-10-31_10:09:10,M655629,TYTHDF-01,https://www.testable.org/experiment/6826/522931/start?participant=M655629&batch_id=TYTHDF-01,567.648,559109,9.3184,75,form,,,,,,,,,,box,,Please state your age in the text box below.,,,8,,,,800,,,,,,559109,56,8539,NA
522931_231102_214808_M655629.csv,8,Chrome,118.0.0.0,1745,981,UNIX,en-GB,2023-11-02_21:38:50,2023-11-02_21:38:50,2023-10-31_10:09:10,M655629,TYTHDF-01,https://www.testable.org/experiment/6826/522931/start?participant=M655629&batch_id=TYTHDF-01,567.648,559109,9.3184,76,form,,,,,,,,,,comment,,Do you have any comments or feedback regarding the experiment?,,,8,,,,800,,,,,,559109,NA,8539,NA
522931_231102_214856_M909198.csv,6,Firefox,115,2049,1152,MacOS,en-GB,2023-11-02_21:40:37,2023-11-02_21:40:37,2023-10-31_10:09:10,M909198,TYTHDF-01,https://www.testable.org/experiment/6826/522931/start?participant=M909198&batch_id=TYTHDF-01,531.656,499113,8.3185,56,test,AKL,A start,AKL,APS end,.png,800,;0,6000;,0 -300; 0 0; 0 -300; 0 0,comment,,,What do you think is the single best explanation for the person's chosen path?,below,6,6,t010110,0 -300;0 0;0 -300;0 0,801,48,16.68,5999,360,16.66,161451,They go to the hot dog place since it is closer.,23838,
522931_231102_214856_M909198.csv,6,Firefox,115,2049,1152,MacOS,en-GB,2023-11-02_21:40:37,2023-11-02_21:40:37,2023-10-31_10:09:10,M909198,TYTHDF-01,https://www.testable.org/experiment/6826/522931/start?participant=M909198&batch_id=TYTHDF-01,531.656,499113,8.3185,53,test,ADS,A start,ADS,ANS end,.png,800,;0,6000;,0 -300; 0 0; 0 -300; 0 0,comment,,,What do you think is the single best explanation for the person's chosen path?,below,6,6,t001100,0 -300;0 0;0 -300;0 0,801,48,16.68,5999,360,16.66,198580,They go just for a walk and did not know the pizza place is around the corner.,30338,
522931_231102_214856_M909198.csv,6,Firefox,115,2049,1152,MacOS,en-GB,2023-11-02_21:40:37,2023-11-02_21:40:37,2023-10-31_10:09:10,M909198,TYTHDF-01,https://www.testable.org/experiment/6826/522931/start?participant=M909198&batch_id=TYTHDF-01,531.656,499113,8.3185,51,test,FKS,B start,FKS,BPL end,.png,800,;0,6000;,0 -300; 0 0; 0 -300; 0 0,comment,,,What do you think is the single best explanation for the person's chosen path?,below,6,6,t111011,0 -300;0 0;0 -300;0 0,800,48,16.67,6000,360,16.67,246012,They went to the hot dogs place as its their favourite.,40635,
522931_231102_214856_M909198.csv,6,Firefox,115,2049,1152,MacOS,en-GB,2023-11-02_21:40:37,2023-11-02_21:40:37,2023-10-31_10:09:10,M909198,TYTHDF-01,https://www.testable.org/experiment/6826/522931/start?participant=M909198&batch_id=TYTHDF-01,531.656,499113,8.3185,55,test,AKS,A start,AKS,ANL end,.png,800,;0,6000;,0 -300; 0 0; 0 -300; 0 0,comment,,,What do you think is the single best explanation for the person's chosen path?,below,6,6,t011101,0 -300;0 0;0 -300;0 0,800,48,16.67,6000,360,16.67,279282,They wanted pizza and walked to get it.,26472,
522931_231102_214856_M909198.csv,6,Firefox,115,2049,1152,MacOS,en-GB,2023-11-02_21:40:37,2023-11-02_21:40:37,2023-10-31_10:09:10,M909198,TYTHDF-01,https://www.testable.org/experiment/6826/522931/start?participant=M909198&batch_id=TYTHDF-01,531.656,499113,8.3185,50,test,FDL,B start,FDL,BNL end,.png,800,;0,6000;,0 -300; 0 0; 0 -300; 0 0,comment,,,What do you think is the single best explanation for the person's chosen path?,below,6,6,t100001,0 -300;0 0;0 -300;0 0,799,48,16.65,6001,360,16.67,333742,They do not know where they are going and so only found a pizza place.,47664,
522931_231102_214856_M909198.csv,6,Firefox,115,2049,1152,MacOS,en-GB,2023-11-02_21:40:37,2023-11-02_21:40:37,2023-10-31_10:09:10,M909198,TYTHDF-01,https://www.testable.org/experiment/6826/522931/start?participant=M909198&batch_id=TYTHDF-01,531.656,499113,8.3185,54,test,ADL,A start,ADL,APL end,.png,800,;0,6000;,0 -300; 0 0; 0 -300; 0 0,comment,,,What do you think is the single best explanation for the person's chosen path?,below,6,6,t000111,0 -300;0 0;0 -300;0 0,801,48,16.69,6000,360,16.67,377939,They had no idea where they were going and found the hotdog place.,37397,
522931_231102_214856_M909198.csv,6,Firefox,115,2049,1152,MacOS,en-GB,2023-11-02_21:40:37,2023-11-02_21:40:37,2023-10-31_10:09:10,M909198,TYTHDF-01,https://www.testable.org/experiment/6826/522931/start?participant=M909198&batch_id=TYTHDF-01,531.656,499113,8.3185,52,test,FKL,B start,FKL,BNS end,.png,800,;0,6000;,0 -300; 0 0; 0 -300; 0 0,comment,,,What do you think is the single best explanation for the person's chosen path?,below,6,6,t110000,0 -300;0 0;0 -300;0 0,801,48,16.68,6000,360,16.67,414520,They went to the nearest place to get pizza as they did not want to walk.,29776,
522931_231102_214856_M909198.csv,6,Firefox,115,2049,1152,MacOS,en-GB,2023-11-02_21:40:37,2023-11-02_21:40:37,2023-10-31_10:09:10,M909198,TYTHDF-01,https://www.testable.org/experiment/6826/522931/start?participant=M909198&batch_id=TYTHDF-01,531.656,499113,8.3185,49,test,FDS,B start,FDS,BPS end,.png,800,;0,6000;,0 -300; 0 0; 0 -300; 0 0,comment,,,What do you think is the single best explanation for the person's chosen path?,below,6,6,t101010,0 -300;0 0;0 -300;0 0,801,49,16.35,7600,221,34.39,449406,They went for a walk and found their favourite place.,26477,
522931_231102_214856_M909198.csv,6,Firefox,115,2049,1152,MacOS,en-GB,2023-11-02_21:40:37,2023-11-02_21:40:37,2023-10-31_10:09:10,M909198,TYTHDF-01,https://www.testable.org/experiment/6826/522931/start?participant=M909198&batch_id=TYTHDF-01,531.656,499113,8.3185,74,form,,,,,,,,,,dropdown,Male;Female;Prefer not say,To which gender do you most identify?,,,6,,,,801,,,,,,499113,Female,32543,2
522931_231102_214856_M909198.csv,6,Firefox,115,2049,1152,MacOS,en-GB,2023-11-02_21:40:37,2023-11-02_21:40:37,2023-10-31_10:09:10,M909198,TYTHDF-01,https://www.testable.org/experiment/6826/522931/start?participant=M909198&batch_id=TYTHDF-01,531.656,499113,8.3185,75,form,,,,,,,,,,box,,Please state your age in the text box below.,,,6,,,,801,,,,,,499113,36,32543,NA
522931_231102_214856_M909198.csv,6,Firefox,115,2049,1152,MacOS,en-GB,2023-11-02_21:40:37,2023-11-02_21:40:37,2023-10-31_10:09:10,M909198,TYTHDF-01,https://www.testable.org/experiment/6826/522931/start?participant=M909198&batch_id=TYTHDF-01,531.656,499113,8.3185,76,form,,,,,,,,,,comment,,Do you have any comments or feedback regarding the experiment?,,,6,,,,801,,,,,,499113,The experiment was fun to complete.,32543,NA
522931_231102_214930_M785342.csv,1,Chrome,119.0.0.0,1440,900,MacOS,en-GB,2023-11-02_21:44:42,2023-11-02_21:44:42,2023-10-31_10:09:10,M785342,TYTHDF-01,https://www.testable.org/experiment/6826/522931/start?participant=M785342&batch_id=TYTHDF-01,304.25,288130,4.8021,10,test,FDL,A start,FDL,APS end,.png,800,;0,6000;,0 -300; 0 0; 0 -300; 0 0,comment,,,What do you think is the single best explanation for the person's chosen path?,below,1,1,t100110,0 -300;0 0;0 -300;0 0,801,48,16.68,6000,360,16.67,82096,As they are lazy so have chosen shortest route,15071,
522931_231102_214930_M785342.csv,1,Chrome,119.0.0.0,1440,900,MacOS,en-GB,2023-11-02_21:44:42,2023-11-02_21:44:42,2023-10-31_10:09:10,M785342,TYTHDF-01,https://www.testable.org/experiment/6826/522931/start?participant=M785342&batch_id=TYTHDF-01,304.25,288130,4.8021,14,test,ADL,A start,ADL,ANS end,.png,800,;0,6000;,0 -300; 0 0; 0 -300; 0 0,comment,,,What do you think is the single best explanation for the person's chosen path?,below,1,1,t000100,0 -300;0 0;0 -300;0 0,800,48,16.67,6000,360,16.67,102458,As he doesnt know the area well,13575,
